treatment;name of treatment;session;subject;id;period;type;match number;color choice;color choice other;total blue;total green;period profit;lottery choice;nonconformity score;payoff main;payoff lottery;payoff survey;payoff final;sex;age;origin;study field;penalty choice;penalty choice other;poll choice;poll total blue;poll total green
1;TT-43;1;1;10101;1;1;3;1;1;20;0;30;2;30;29,74;3;3;35,74;0;25;Asian;Computer Science;;;;;
1;TT-43;1;1;10101;2;1;3;1;1;19;1;30;2;30;29,74;3;3;35,74;0;25;Asian;Computer Science;;;;;
1;TT-43;1;1;10101;3;1;8;1;1;19;1;30;2;30;29,74;3;3;35,74;0;25;Asian;Computer Science;;;;;
1;TT-43;1;1;10101;4;1;7;1;1;19;1;30;2;30;29,74;3;3;35,74;0;25;Asian;Computer Science;;;;;
1;TT-43;1;1;10101;5;1;5;1;1;20;0;30;2;30;29,74;3;3;35,74;0;25;Asian;Computer Science;;;;;
1;TT-43;1;1;10101;6;2;8;1;1;20;0;20;2;30;29,74;3;3;35,74;0;25;Asian;Computer Science;;;;;
1;TT-43;1;1;10101;7;2;3;1;1;19;1;20;2;30;29,74;3;3;35,74;0;25;Asian;Computer Science;;;;;
1;TT-43;1;1;10101;8;2;10;1;1;19;1;20;2;30;29,74;3;3;35,74;0;25;Asian;Computer Science;;;;;
1;TT-43;1;1;10101;9;2;10;1;1;20;0;20;2;30;29,74;3;3;35,74;0;25;Asian;Computer Science;;;;;
1;TT-43;1;1;10101;10;2;9;1;1;20;0;20;2;30;29,74;3;3;35,74;0;25;Asian;Computer Science;;;;;
1;TT-43;1;1;10101;11;2;1;1;1;20;0;20;2;30;29,74;3;3;35,74;0;25;Asian;Computer Science;;;;;
1;TT-43;1;1;10101;12;2;1;1;1;20;0;20;2;30;29,74;3;3;35,74;0;25;Asian;Computer Science;;;;;
1;TT-43;1;1;10101;13;2;6;1;1;20;0;20;2;30;29,74;3;3;35,74;0;25;Asian;Computer Science;;;;;
1;TT-43;1;1;10101;14;2;5;1;1;19;1;20;2;30;29,74;3;3;35,74;0;25;Asian;Computer Science;;;;;
1;TT-43;1;1;10101;15;2;5;1;1;18;2;20;2;30;29,74;3;3;35,74;0;25;Asian;Computer Science;;;;;
1;TT-43;1;1;10101;16;2;10;1;1;20;0;20;2;30;29,74;3;3;35,74;0;25;Asian;Computer Science;;;;;
1;TT-43;1;1;10101;17;2;5;1;1;19;1;20;2;30;29,74;3;3;35,74;0;25;Asian;Computer Science;;;;;
1;TT-43;1;1;10101;18;2;5;1;1;20;0;20;2;30;29,74;3;3;35,74;0;25;Asian;Computer Science;;;;;
1;TT-43;1;1;10101;19;2;2;1;1;19;1;20;2;30;29,74;3;3;35,74;0;25;Asian;Computer Science;;;;;
1;TT-43;1;1;10101;20;2;4;1;1;20;0;20;2;30;29,74;3;3;35,74;0;25;Asian;Computer Science;;;;;
1;TT-43;1;1;10101;21;2;4;1;1;20;0;20;2;30;29,74;3;3;35,74;0;25;Asian;Computer Science;;;;;
1;TT-43;1;1;10101;22;2;3;1;1;19;1;20;2;30;29,74;3;3;35,74;0;25;Asian;Computer Science;;;;;
1;TT-43;1;1;10101;23;2;6;1;1;19;1;20;2;30;29,74;3;3;35,74;0;25;Asian;Computer Science;;;;;
1;TT-43;1;1;10101;24;2;10;1;2;17;3;8;2;30;29,74;3;3;35,74;0;25;Asian;Computer Science;;;;;
1;TT-43;1;1;10101;25;2;2;1;1;19;1;20;2;30;29,74;3;3;35,74;0;25;Asian;Computer Science;;;;;
1;TT-43;1;1;10101;26;2;9;1;1;18;2;20;2;30;29,74;3;3;35,74;0;25;Asian;Computer Science;;;;;
1;TT-43;1;1;10101;27;2;6;1;1;19;1;20;2;30;29,74;3;3;35,74;0;25;Asian;Computer Science;;;;;
1;TT-43;1;1;10101;28;2;6;1;1;20;0;20;2;30;29,74;3;3;35,74;0;25;Asian;Computer Science;;;;;
1;TT-43;1;1;10101;29;2;3;1;1;20;0;20;2;30;29,74;3;3;35,74;0;25;Asian;Computer Science;;;;;
1;TT-43;1;1;10101;30;2;9;1;1;20;0;20;2;30;29,74;3;3;35,74;0;25;Asian;Computer Science;;;;;
1;TT-43;1;1;10101;31;2;1;1;1;20;0;20;2;30;29,74;3;3;35,74;0;25;Asian;Computer Science;;;;;
1;TT-43;1;2;10102;1;1;7;1;1;20;0;30;2;31;28,96;3;3;34,96;1;23;USA;Biology;;;;;
1;TT-43;1;2;10102;2;1;10;1;1;19;1;30;2;31;28,96;3;3;34,96;1;23;USA;Biology;;;;;
1;TT-43;1;2;10102;3;1;7;1;1;19;1;30;2;31;28,96;3;3;34,96;1;23;USA;Biology;;;;;
1;TT-43;1;2;10102;4;1;6;1;1;19;1;30;2;31;28,96;3;3;34,96;1;23;USA;Biology;;;;;
1;TT-43;1;2;10102;5;1;6;1;1;20;0;30;2;31;28,96;3;3;34,96;1;23;USA;Biology;;;;;
1;TT-43;1;2;10102;6;1;5;1;1;20;0;30;2;31;28,96;3;3;34,96;1;23;USA;Biology;;;;;
1;TT-43;1;2;10102;7;1;4;1;1;19;1;30;2;31;28,96;3;3;34,96;1;23;USA;Biology;;;;;
1;TT-43;1;2;10102;8;1;7;1;1;19;1;30;2;31;28,96;3;3;34,96;1;23;USA;Biology;;;;;
1;TT-43;1;2;10102;9;1;9;1;1;20;0;30;2;31;28,96;3;3;34,96;1;23;USA;Biology;;;;;
1;TT-43;1;2;10102;10;1;6;1;1;20;0;30;2;31;28,96;3;3;34,96;1;23;USA;Biology;;;;;
1;TT-43;1;2;10102;11;1;6;1;1;20;0;30;2;31;28,96;3;3;34,96;1;23;USA;Biology;;;;;
1;TT-43;1;2;10102;12;1;6;1;1;20;0;30;2;31;28,96;3;3;34,96;1;23;USA;Biology;;;;;
1;TT-43;1;2;10102;13;1;9;1;1;20;0;30;2;31;28,96;3;3;34,96;1;23;USA;Biology;;;;;
1;TT-43;1;2;10102;14;1;6;1;1;19;1;30;2;31;28,96;3;3;34,96;1;23;USA;Biology;;;;;
1;TT-43;1;2;10102;15;1;4;1;2;18;2;22;2;31;28,96;3;3;34,96;1;23;USA;Biology;;;;;
1;TT-43;1;2;10102;16;1;6;1;1;20;0;30;2;31;28,96;3;3;34,96;1;23;USA;Biology;;;;;
1;TT-43;1;2;10102;17;1;5;1;1;19;1;30;2;31;28,96;3;3;34,96;1;23;USA;Biology;;;;;
1;TT-43;1;2;10102;18;1;3;1;1;20;0;30;2;31;28,96;3;3;34,96;1;23;USA;Biology;;;;;
1;TT-43;1;2;10102;19;1;3;1;1;19;1;30;2;31;28,96;3;3;34,96;1;23;USA;Biology;;;;;
1;TT-43;1;2;10102;20;1;2;1;1;20;0;30;2;31;28,96;3;3;34,96;1;23;USA;Biology;;;;;
1;TT-43;1;2;10102;21;1;1;1;1;20;0;30;2;31;28,96;3;3;34,96;1;23;USA;Biology;;;;;
1;TT-43;1;2;10102;22;2;5;2;1;19;1;-46;2;31;28,96;3;3;34,96;1;23;USA;Biology;;;;;
1;TT-43;1;2;10102;23;2;9;2;1;19;1;-46;2;31;28,96;3;3;34,96;1;23;USA;Biology;;;;;
1;TT-43;1;2;10102;24;2;9;2;1;17;3;-38;2;31;28,96;3;3;34,96;1;23;USA;Biology;;;;;
1;TT-43;1;2;10102;25;2;8;1;1;19;1;20;2;31;28,96;3;3;34,96;1;23;USA;Biology;;;;;
1;TT-43;1;2;10102;26;2;7;1;1;18;2;20;2;31;28,96;3;3;34,96;1;23;USA;Biology;;;;;
1;TT-43;1;2;10102;27;2;3;1;1;19;1;20;2;31;28,96;3;3;34,96;1;23;USA;Biology;;;;;
1;TT-43;1;2;10102;28;2;4;1;1;20;0;20;2;31;28,96;3;3;34,96;1;23;USA;Biology;;;;;
1;TT-43;1;2;10102;29;2;9;1;1;20;0;20;2;31;28,96;3;3;34,96;1;23;USA;Biology;;;;;
1;TT-43;1;2;10102;30;2;5;1;1;20;0;20;2;31;28,96;3;3;34,96;1;23;USA;Biology;;;;;
1;TT-43;1;2;10102;31;2;8;1;1;20;0;20;2;31;28,96;3;3;34,96;1;23;USA;Biology;;;;;
1;TT-43;1;3;10103;1;1;10;1;1;20;0;30;2;36;31,9;3;3;37,9;0;22;American;Biochemistry & Cell Biology;;;;;
1;TT-43;1;3;10103;2;1;8;1;1;19;1;30;2;36;31,9;3;3;37,9;0;22;American;Biochemistry & Cell Biology;;;;;
1;TT-43;1;3;10103;3;1;1;1;1;19;1;30;2;36;31,9;3;3;37,9;0;22;American;Biochemistry & Cell Biology;;;;;
1;TT-43;1;3;10103;4;1;10;1;1;19;1;30;2;36;31,9;3;3;37,9;0;22;American;Biochemistry & Cell Biology;;;;;
1;TT-43;1;3;10103;5;1;9;1;1;20;0;30;2;36;31,9;3;3;37,9;0;22;American;Biochemistry & Cell Biology;;;;;
1;TT-43;1;3;10103;6;1;9;1;1;20;0;30;2;36;31,9;3;3;37,9;0;22;American;Biochemistry & Cell Biology;;;;;
1;TT-43;1;3;10103;7;1;7;1;1;19;1;30;2;36;31,9;3;3;37,9;0;22;American;Biochemistry & Cell Biology;;;;;
1;TT-43;1;3;10103;8;1;1;1;1;19;1;30;2;36;31,9;3;3;37,9;0;22;American;Biochemistry & Cell Biology;;;;;
1;TT-43;1;3;10103;9;1;3;1;1;20;0;30;2;36;31,9;3;3;37,9;0;22;American;Biochemistry & Cell Biology;;;;;
1;TT-43;1;3;10103;10;1;1;1;1;20;0;30;2;36;31,9;3;3;37,9;0;22;American;Biochemistry & Cell Biology;;;;;
1;TT-43;1;3;10103;11;1;5;1;1;20;0;30;2;36;31,9;3;3;37,9;0;22;American;Biochemistry & Cell Biology;;;;;
1;TT-43;1;3;10103;12;2;3;1;1;20;0;20;2;36;31,9;3;3;37,9;0;22;American;Biochemistry & Cell Biology;;;;;
1;TT-43;1;3;10103;13;2;6;1;1;20;0;20;2;36;31,9;3;3;37,9;0;22;American;Biochemistry & Cell Biology;;;;;
1;TT-43;1;3;10103;14;2;4;1;1;19;1;20;2;36;31,9;3;3;37,9;0;22;American;Biochemistry & Cell Biology;;;;;
1;TT-43;1;3;10103;15;2;3;1;1;18;2;20;2;36;31,9;3;3;37,9;0;22;American;Biochemistry & Cell Biology;;;;;
1;TT-43;1;3;10103;16;2;6;1;1;20;0;20;2;36;31,9;3;3;37,9;0;22;American;Biochemistry & Cell Biology;;;;;
1;TT-43;1;3;10103;17;2;1;1;1;19;1;20;2;36;31,9;3;3;37,9;0;22;American;Biochemistry & Cell Biology;;;;;
1;TT-43;1;3;10103;18;2;2;1;1;20;0;20;2;36;31,9;3;3;37,9;0;22;American;Biochemistry & Cell Biology;;;;;
1;TT-43;1;3;10103;19;2;4;1;1;19;1;20;2;36;31,9;3;3;37,9;0;22;American;Biochemistry & Cell Biology;;;;;
1;TT-43;1;3;10103;20;2;5;1;1;20;0;20;2;36;31,9;3;3;37,9;0;22;American;Biochemistry & Cell Biology;;;;;
1;TT-43;1;3;10103;21;2;9;1;1;20;0;20;2;36;31,9;3;3;37,9;0;22;American;Biochemistry & Cell Biology;;;;;
1;TT-43;1;3;10103;22;2;1;1;1;19;1;20;2;36;31,9;3;3;37,9;0;22;American;Biochemistry & Cell Biology;;;;;
1;TT-43;1;3;10103;23;2;3;1;1;19;1;20;2;36;31,9;3;3;37,9;0;22;American;Biochemistry & Cell Biology;;;;;
1;TT-43;1;3;10103;24;2;2;1;1;17;3;20;2;36;31,9;3;3;37,9;0;22;American;Biochemistry & Cell Biology;;;;;
1;TT-43;1;3;10103;25;2;5;1;1;19;1;20;2;36;31,9;3;3;37,9;0;22;American;Biochemistry & Cell Biology;;;;;
1;TT-43;1;3;10103;26;2;4;1;1;18;2;20;2;36;31,9;3;3;37,9;0;22;American;Biochemistry & Cell Biology;;;;;
1;TT-43;1;3;10103;27;2;1;1;1;19;1;20;2;36;31,9;3;3;37,9;0;22;American;Biochemistry & Cell Biology;;;;;
1;TT-43;1;3;10103;28;2;7;1;1;20;0;20;2;36;31,9;3;3;37,9;0;22;American;Biochemistry & Cell Biology;;;;;
1;TT-43;1;3;10103;29;2;1;1;1;20;0;20;2;36;31,9;3;3;37,9;0;22;American;Biochemistry & Cell Biology;;;;;
1;TT-43;1;3;10103;30;2;2;1;1;20;0;20;2;36;31,9;3;3;37,9;0;22;American;Biochemistry & Cell Biology;;;;;
1;TT-43;1;3;10103;31;2;3;1;1;20;0;20;2;36;31,9;3;3;37,9;0;22;American;Biochemistry & Cell Biology;;;;;
1;TT-43;1;4;10104;1;1;1;1;1;20;0;30;3;37;26,44;4;3;33,44;1;18;Vietnamese-American;Human Biology;;;;;
1;TT-43;1;4;10104;2;1;9;1;1;19;1;30;3;37;26,44;4;3;33,44;1;18;Vietnamese-American;Human Biology;;;;;
1;TT-43;1;4;10104;3;1;4;1;1;19;1;30;3;37;26,44;4;3;33,44;1;18;Vietnamese-American;Human Biology;;;;;
1;TT-43;1;4;10104;4;1;7;1;1;19;1;30;3;37;26,44;4;3;33,44;1;18;Vietnamese-American;Human Biology;;;;;
1;TT-43;1;4;10104;5;1;10;1;1;20;0;30;3;37;26,44;4;3;33,44;1;18;Vietnamese-American;Human Biology;;;;;
1;TT-43;1;4;10104;6;1;6;1;1;20;0;30;3;37;26,44;4;3;33,44;1;18;Vietnamese-American;Human Biology;;;;;
1;TT-43;1;4;10104;7;1;6;1;1;19;1;30;3;37;26,44;4;3;33,44;1;18;Vietnamese-American;Human Biology;;;;;
1;TT-43;1;4;10104;8;1;5;1;1;19;1;30;3;37;26,44;4;3;33,44;1;18;Vietnamese-American;Human Biology;;;;;
1;TT-43;1;4;10104;9;1;2;1;1;20;0;30;3;37;26,44;4;3;33,44;1;18;Vietnamese-American;Human Biology;;;;;
1;TT-43;1;4;10104;10;1;6;1;1;20;0;30;3;37;26,44;4;3;33,44;1;18;Vietnamese-American;Human Biology;;;;;
1;TT-43;1;4;10104;11;1;9;1;1;20;0;30;3;37;26,44;4;3;33,44;1;18;Vietnamese-American;Human Biology;;;;;
1;TT-43;1;4;10104;12;1;8;1;1;20;0;30;3;37;26,44;4;3;33,44;1;18;Vietnamese-American;Human Biology;;;;;
1;TT-43;1;4;10104;13;1;3;1;1;20;0;30;3;37;26,44;4;3;33,44;1;18;Vietnamese-American;Human Biology;;;;;
1;TT-43;1;4;10104;14;2;2;2;1;19;1;-46;3;37;26,44;4;3;33,44;1;18;Vietnamese-American;Human Biology;;;;;
1;TT-43;1;4;10104;15;2;4;2;1;18;2;-42;3;37;26,44;4;3;33,44;1;18;Vietnamese-American;Human Biology;;;;;
1;TT-43;1;4;10104;16;2;9;1;1;20;0;20;3;37;26,44;4;3;33,44;1;18;Vietnamese-American;Human Biology;;;;;
1;TT-43;1;4;10104;17;2;9;2;1;19;1;-46;3;37;26,44;4;3;33,44;1;18;Vietnamese-American;Human Biology;;;;;
1;TT-43;1;4;10104;18;2;5;1;1;20;0;20;3;37;26,44;4;3;33,44;1;18;Vietnamese-American;Human Biology;;;;;
1;TT-43;1;4;10104;19;2;7;1;1;19;1;20;3;37;26,44;4;3;33,44;1;18;Vietnamese-American;Human Biology;;;;;
1;TT-43;1;4;10104;20;2;3;1;1;20;0;20;3;37;26,44;4;3;33,44;1;18;Vietnamese-American;Human Biology;;;;;
1;TT-43;1;4;10104;21;2;2;1;1;20;0;20;3;37;26,44;4;3;33,44;1;18;Vietnamese-American;Human Biology;;;;;
1;TT-43;1;4;10104;22;2;8;1;1;19;1;20;3;37;26,44;4;3;33,44;1;18;Vietnamese-American;Human Biology;;;;;
1;TT-43;1;4;10104;23;2;7;1;1;19;1;20;3;37;26,44;4;3;33,44;1;18;Vietnamese-American;Human Biology;;;;;
1;TT-43;1;4;10104;24;2;4;1;1;17;3;20;3;37;26,44;4;3;33,44;1;18;Vietnamese-American;Human Biology;;;;;
1;TT-43;1;4;10104;25;2;2;1;1;19;1;20;3;37;26,44;4;3;33,44;1;18;Vietnamese-American;Human Biology;;;;;
1;TT-43;1;4;10104;26;2;6;1;2;18;2;12;3;37;26,44;4;3;33,44;1;18;Vietnamese-American;Human Biology;;;;;
1;TT-43;1;4;10104;27;2;9;1;1;19;1;20;3;37;26,44;4;3;33,44;1;18;Vietnamese-American;Human Biology;;;;;
1;TT-43;1;4;10104;28;2;9;1;1;20;0;20;3;37;26,44;4;3;33,44;1;18;Vietnamese-American;Human Biology;;;;;
1;TT-43;1;4;10104;29;2;4;1;1;20;0;20;3;37;26,44;4;3;33,44;1;18;Vietnamese-American;Human Biology;;;;;
1;TT-43;1;4;10104;30;2;1;1;1;20;0;20;3;37;26,44;4;3;33,44;1;18;Vietnamese-American;Human Biology;;;;;
1;TT-43;1;4;10104;31;2;8;1;1;20;0;20;3;37;26,44;4;3;33,44;1;18;Vietnamese-American;Human Biology;;;;;
1;TT-43;1;5;10105;1;1;8;1;1;20;0;30;3;29;27,64;4;3;34,64;1;20;Indian/Filipino;Molecular Biology;;;;;
1;TT-43;1;5;10105;2;1;9;1;1;19;1;30;3;29;27,64;4;3;34,64;1;20;Indian/Filipino;Molecular Biology;;;;;
1;TT-43;1;5;10105;3;1;10;2;1;19;1;-56;3;29;27,64;4;3;34,64;1;20;Indian/Filipino;Molecular Biology;;;;;
1;TT-43;1;5;10105;4;1;2;2;1;19;1;-56;3;29;27,64;4;3;34,64;1;20;Indian/Filipino;Molecular Biology;;;;;
1;TT-43;1;5;10105;5;1;2;1;1;20;0;30;3;29;27,64;4;3;34,64;1;20;Indian/Filipino;Molecular Biology;;;;;
1;TT-43;1;5;10105;6;1;4;1;1;20;0;30;3;29;27,64;4;3;34,64;1;20;Indian/Filipino;Molecular Biology;;;;;
1;TT-43;1;5;10105;7;1;9;1;1;19;1;30;3;29;27,64;4;3;34,64;1;20;Indian/Filipino;Molecular Biology;;;;;
1;TT-43;1;5;10105;8;1;8;1;1;19;1;30;3;29;27,64;4;3;34,64;1;20;Indian/Filipino;Molecular Biology;;;;;
1;TT-43;1;5;10105;9;1;8;1;1;20;0;30;3;29;27,64;4;3;34,64;1;20;Indian/Filipino;Molecular Biology;;;;;
1;TT-43;1;5;10105;10;1;8;1;1;20;0;30;3;29;27,64;4;3;34,64;1;20;Indian/Filipino;Molecular Biology;;;;;
1;TT-43;1;5;10105;11;1;8;1;1;20;0;30;3;29;27,64;4;3;34,64;1;20;Indian/Filipino;Molecular Biology;;;;;
1;TT-43;1;5;10105;12;1;4;1;1;20;0;30;3;29;27,64;4;3;34,64;1;20;Indian/Filipino;Molecular Biology;;;;;
1;TT-43;1;5;10105;13;1;10;1;1;20;0;30;3;29;27,64;4;3;34,64;1;20;Indian/Filipino;Molecular Biology;;;;;
1;TT-43;1;5;10105;14;1;9;1;1;19;1;30;3;29;27,64;4;3;34,64;1;20;Indian/Filipino;Molecular Biology;;;;;
1;TT-43;1;5;10105;15;1;3;1;1;18;2;30;3;29;27,64;4;3;34,64;1;20;Indian/Filipino;Molecular Biology;;;;;
1;TT-43;1;5;10105;16;1;9;1;1;20;0;30;3;29;27,64;4;3;34,64;1;20;Indian/Filipino;Molecular Biology;;;;;
1;TT-43;1;5;10105;17;1;4;1;1;19;1;30;3;29;27,64;4;3;34,64;1;20;Indian/Filipino;Molecular Biology;;;;;
1;TT-43;1;5;10105;18;1;1;1;1;20;0;30;3;29;27,64;4;3;34,64;1;20;Indian/Filipino;Molecular Biology;;;;;
1;TT-43;1;5;10105;19;1;10;1;1;19;1;30;3;29;27,64;4;3;34,64;1;20;Indian/Filipino;Molecular Biology;;;;;
1;TT-43;1;5;10105;20;1;3;1;1;20;0;30;3;29;27,64;4;3;34,64;1;20;Indian/Filipino;Molecular Biology;;;;;
1;TT-43;1;5;10105;21;1;5;1;1;20;0;30;3;29;27,64;4;3;34,64;1;20;Indian/Filipino;Molecular Biology;;;;;
1;TT-43;1;5;10105;22;2;7;1;1;19;1;20;3;29;27,64;4;3;34,64;1;20;Indian/Filipino;Molecular Biology;;;;;
1;TT-43;1;5;10105;23;2;9;1;2;19;1;16;3;29;27,64;4;3;34,64;1;20;Indian/Filipino;Molecular Biology;;;;;
1;TT-43;1;5;10105;24;2;3;2;1;17;3;-38;3;29;27,64;4;3;34,64;1;20;Indian/Filipino;Molecular Biology;;;;;
1;TT-43;1;5;10105;25;2;6;1;1;19;1;20;3;29;27,64;4;3;34,64;1;20;Indian/Filipino;Molecular Biology;;;;;
1;TT-43;1;5;10105;26;2;2;1;2;18;2;12;3;29;27,64;4;3;34,64;1;20;Indian/Filipino;Molecular Biology;;;;;
1;TT-43;1;5;10105;27;2;7;1;1;19;1;20;3;29;27,64;4;3;34,64;1;20;Indian/Filipino;Molecular Biology;;;;;
1;TT-43;1;5;10105;28;2;6;1;1;20;0;20;3;29;27,64;4;3;34,64;1;20;Indian/Filipino;Molecular Biology;;;;;
1;TT-43;1;5;10105;29;2;1;1;1;20;0;20;3;29;27,64;4;3;34,64;1;20;Indian/Filipino;Molecular Biology;;;;;
1;TT-43;1;5;10105;30;2;2;1;1;20;0;20;3;29;27,64;4;3;34,64;1;20;Indian/Filipino;Molecular Biology;;;;;
1;TT-43;1;5;10105;31;2;3;1;1;20;0;20;3;29;27,64;4;3;34,64;1;20;Indian/Filipino;Molecular Biology;;;;;
1;TT-43;1;6;10106;1;1;5;1;1;20;0;30;1;32;26,92;2;3;31,92;0;23;Chinese;International Studies - Economics;;;;;
1;TT-43;1;6;10106;2;2;6;2;1;19;1;-46;1;32;26,92;2;3;31,92;0;23;Chinese;International Studies - Economics;;;;;
1;TT-43;1;6;10106;3;2;9;1;1;19;1;20;1;32;26,92;2;3;31,92;0;23;Chinese;International Studies - Economics;;;;;
1;TT-43;1;6;10106;4;2;3;1;1;19;1;20;1;32;26,92;2;3;31,92;0;23;Chinese;International Studies - Economics;;;;;
1;TT-43;1;6;10106;5;2;2;1;1;20;0;20;1;32;26,92;2;3;31,92;0;23;Chinese;International Studies - Economics;;;;;
1;TT-43;1;6;10106;6;2;1;1;1;20;0;20;1;32;26,92;2;3;31,92;0;23;Chinese;International Studies - Economics;;;;;
1;TT-43;1;6;10106;7;2;1;1;1;19;1;20;1;32;26,92;2;3;31,92;0;23;Chinese;International Studies - Economics;;;;;
1;TT-43;1;6;10106;8;2;2;1;1;19;1;20;1;32;26,92;2;3;31,92;0;23;Chinese;International Studies - Economics;;;;;
1;TT-43;1;6;10106;9;2;8;1;1;20;0;20;1;32;26,92;2;3;31,92;0;23;Chinese;International Studies - Economics;;;;;
1;TT-43;1;6;10106;10;2;1;1;1;20;0;20;1;32;26,92;2;3;31,92;0;23;Chinese;International Studies - Economics;;;;;
1;TT-43;1;6;10106;11;2;7;1;1;20;0;20;1;32;26,92;2;3;31,92;0;23;Chinese;International Studies - Economics;;;;;
1;TT-43;1;6;10106;12;2;9;1;1;20;0;20;1;32;26,92;2;3;31,92;0;23;Chinese;International Studies - Economics;;;;;
1;TT-43;1;6;10106;13;2;8;1;1;20;0;20;1;32;26,92;2;3;31,92;0;23;Chinese;International Studies - Economics;;;;;
1;TT-43;1;6;10106;14;2;8;1;1;19;1;20;1;32;26,92;2;3;31,92;0;23;Chinese;International Studies - Economics;;;;;
1;TT-43;1;6;10106;15;2;8;1;1;18;2;20;1;32;26,92;2;3;31,92;0;23;Chinese;International Studies - Economics;;;;;
1;TT-43;1;6;10106;16;2;4;1;1;20;0;20;1;32;26,92;2;3;31,92;0;23;Chinese;International Studies - Economics;;;;;
1;TT-43;1;6;10106;17;2;10;1;1;19;1;20;1;32;26,92;2;3;31,92;0;23;Chinese;International Studies - Economics;;;;;
1;TT-43;1;6;10106;18;2;9;1;1;20;0;20;1;32;26,92;2;3;31,92;0;23;Chinese;International Studies - Economics;;;;;
1;TT-43;1;6;10106;19;2;3;1;1;19;1;20;1;32;26,92;2;3;31,92;0;23;Chinese;International Studies - Economics;;;;;
1;TT-43;1;6;10106;20;2;1;1;1;20;0;20;1;32;26,92;2;3;31,92;0;23;Chinese;International Studies - Economics;;;;;
1;TT-43;1;6;10106;21;2;7;1;1;20;0;20;1;32;26,92;2;3;31,92;0;23;Chinese;International Studies - Economics;;;;;
1;TT-43;1;6;10106;22;2;7;1;1;19;1;20;1;32;26,92;2;3;31,92;0;23;Chinese;International Studies - Economics;;;;;
1;TT-43;1;6;10106;23;2;4;1;1;19;1;20;1;32;26,92;2;3;31,92;0;23;Chinese;International Studies - Economics;;;;;
1;TT-43;1;6;10106;24;2;8;1;1;17;3;20;1;32;26,92;2;3;31,92;0;23;Chinese;International Studies - Economics;;;;;
1;TT-43;1;6;10106;25;2;9;1;1;19;1;20;1;32;26,92;2;3;31,92;0;23;Chinese;International Studies - Economics;;;;;
1;TT-43;1;6;10106;26;2;3;1;1;18;2;20;1;32;26,92;2;3;31,92;0;23;Chinese;International Studies - Economics;;;;;
1;TT-43;1;6;10106;27;2;5;1;1;19;1;20;1;32;26,92;2;3;31,92;0;23;Chinese;International Studies - Economics;;;;;
1;TT-43;1;6;10106;28;2;3;1;1;20;0;20;1;32;26,92;2;3;31,92;0;23;Chinese;International Studies - Economics;;;;;
1;TT-43;1;6;10106;29;2;10;1;1;20;0;20;1;32;26,92;2;3;31,92;0;23;Chinese;International Studies - Economics;;;;;
1;TT-43;1;6;10106;30;2;4;1;1;20;0;20;1;32;26,92;2;3;31,92;0;23;Chinese;International Studies - Economics;;;;;
1;TT-43;1;6;10106;31;2;2;1;1;20;0;20;1;32;26,92;2;3;31,92;0;23;Chinese;International Studies - Economics;;;;;
1;TT-43;1;7;10107;1;1;6;1;1;20;0;30;1;33;35,32;2;3;40,32;1;21;american;computer science;;;;;
1;TT-43;1;7;10107;2;1;6;1;2;19;1;26;1;33;35,32;2;3;40,32;1;21;american;computer science;;;;;
1;TT-43;1;7;10107;3;1;1;1;1;19;1;30;1;33;35,32;2;3;40,32;1;21;american;computer science;;;;;
1;TT-43;1;7;10107;4;1;4;1;1;19;1;30;1;33;35,32;2;3;40,32;1;21;american;computer science;;;;;
1;TT-43;1;7;10107;5;1;3;1;1;20;0;30;1;33;35,32;2;3;40,32;1;21;american;computer science;;;;;
1;TT-43;1;7;10107;6;1;3;1;1;20;0;30;1;33;35,32;2;3;40,32;1;21;american;computer science;;;;;
1;TT-43;1;7;10107;7;1;4;1;1;19;1;30;1;33;35,32;2;3;40,32;1;21;american;computer science;;;;;
1;TT-43;1;7;10107;8;1;9;1;1;19;1;30;1;33;35,32;2;3;40,32;1;21;american;computer science;;;;;
1;TT-43;1;7;10107;9;1;3;1;1;20;0;30;1;33;35,32;2;3;40,32;1;21;american;computer science;;;;;
1;TT-43;1;7;10107;10;1;4;1;1;20;0;30;1;33;35,32;2;3;40,32;1;21;american;computer science;;;;;
1;TT-43;1;7;10107;11;1;9;1;1;20;0;30;1;33;35,32;2;3;40,32;1;21;american;computer science;;;;;
1;TT-43;1;7;10107;12;1;2;1;1;20;0;30;1;33;35,32;2;3;40,32;1;21;american;computer science;;;;;
1;TT-43;1;7;10107;13;1;10;1;1;20;0;30;1;33;35,32;2;3;40,32;1;21;american;computer science;;;;;
1;TT-43;1;7;10107;14;1;9;1;1;19;1;30;1;33;35,32;2;3;40,32;1;21;american;computer science;;;;;
1;TT-43;1;7;10107;15;1;9;1;1;18;2;30;1;33;35,32;2;3;40,32;1;21;american;computer science;;;;;
1;TT-43;1;7;10107;16;1;2;1;1;20;0;30;1;33;35,32;2;3;40,32;1;21;american;computer science;;;;;
1;TT-43;1;7;10107;17;1;10;1;1;19;1;30;1;33;35,32;2;3;40,32;1;21;american;computer science;;;;;
1;TT-43;1;7;10107;18;1;1;1;1;20;0;30;1;33;35,32;2;3;40,32;1;21;american;computer science;;;;;
1;TT-43;1;7;10107;19;1;9;1;1;19;1;30;1;33;35,32;2;3;40,32;1;21;american;computer science;;;;;
1;TT-43;1;7;10107;20;1;4;1;1;20;0;30;1;33;35,32;2;3;40,32;1;21;american;computer science;;;;;
1;TT-43;1;7;10107;21;1;3;1;1;20;0;30;1;33;35,32;2;3;40,32;1;21;american;computer science;;;;;
1;TT-43;1;7;10107;22;1;6;1;1;19;1;30;1;33;35,32;2;3;40,32;1;21;american;computer science;;;;;
1;TT-43;1;7;10107;23;1;3;1;1;19;1;30;1;33;35,32;2;3;40,32;1;21;american;computer science;;;;;
1;TT-43;1;7;10107;24;1;3;1;2;17;3;18;1;33;35,32;2;3;40,32;1;21;american;computer science;;;;;
1;TT-43;1;7;10107;25;2;3;1;1;19;1;20;1;33;35,32;2;3;40,32;1;21;american;computer science;;;;;
1;TT-43;1;7;10107;26;2;7;1;1;18;2;20;1;33;35,32;2;3;40,32;1;21;american;computer science;;;;;
1;TT-43;1;7;10107;27;2;5;1;1;19;1;20;1;33;35,32;2;3;40,32;1;21;american;computer science;;;;;
1;TT-43;1;7;10107;28;2;10;1;1;20;0;20;1;33;35,32;2;3;40,32;1;21;american;computer science;;;;;
1;TT-43;1;7;10107;29;2;9;1;1;20;0;20;1;33;35,32;2;3;40,32;1;21;american;computer science;;;;;
1;TT-43;1;7;10107;30;2;1;1;1;20;0;20;1;33;35,32;2;3;40,32;1;21;american;computer science;;;;;
1;TT-43;1;7;10107;31;2;10;1;1;20;0;20;1;33;35,32;2;3;40,32;1;21;american;computer science;;;;;
1;TT-43;1;8;10108;1;1;2;1;1;20;0;30;1;34;28,78;0;3;31,78;1;21;Hispanic American;Biology;;;;;
1;TT-43;1;8;10108;2;2;2;1;1;19;1;20;1;34;28,78;0;3;31,78;1;21;Hispanic American;Biology;;;;;
1;TT-43;1;8;10108;3;2;3;1;1;19;1;20;1;34;28,78;0;3;31,78;1;21;Hispanic American;Biology;;;;;
1;TT-43;1;8;10108;4;2;9;1;1;19;1;20;1;34;28,78;0;3;31,78;1;21;Hispanic American;Biology;;;;;
1;TT-43;1;8;10108;5;2;3;1;1;20;0;20;1;34;28,78;0;3;31,78;1;21;Hispanic American;Biology;;;;;
1;TT-43;1;8;10108;6;2;10;1;1;20;0;20;1;34;28,78;0;3;31,78;1;21;Hispanic American;Biology;;;;;
1;TT-43;1;8;10108;7;2;9;1;1;19;1;20;1;34;28,78;0;3;31,78;1;21;Hispanic American;Biology;;;;;
1;TT-43;1;8;10108;8;2;1;1;1;19;1;20;1;34;28,78;0;3;31,78;1;21;Hispanic American;Biology;;;;;
1;TT-43;1;8;10108;9;2;2;1;1;20;0;20;1;34;28,78;0;3;31,78;1;21;Hispanic American;Biology;;;;;
1;TT-43;1;8;10108;10;2;10;1;1;20;0;20;1;34;28,78;0;3;31,78;1;21;Hispanic American;Biology;;;;;
1;TT-43;1;8;10108;11;2;7;1;1;20;0;20;1;34;28,78;0;3;31,78;1;21;Hispanic American;Biology;;;;;
1;TT-43;1;8;10108;12;2;5;1;1;20;0;20;1;34;28,78;0;3;31,78;1;21;Hispanic American;Biology;;;;;
1;TT-43;1;8;10108;13;2;1;1;1;20;0;20;1;34;28,78;0;3;31,78;1;21;Hispanic American;Biology;;;;;
1;TT-43;1;8;10108;14;2;10;1;1;19;1;20;1;34;28,78;0;3;31,78;1;21;Hispanic American;Biology;;;;;
1;TT-43;1;8;10108;15;2;1;1;1;18;2;20;1;34;28,78;0;3;31,78;1;21;Hispanic American;Biology;;;;;
1;TT-43;1;8;10108;16;2;1;1;1;20;0;20;1;34;28,78;0;3;31,78;1;21;Hispanic American;Biology;;;;;
1;TT-43;1;8;10108;17;2;7;1;1;19;1;20;1;34;28,78;0;3;31,78;1;21;Hispanic American;Biology;;;;;
1;TT-43;1;8;10108;18;2;7;1;1;20;0;20;1;34;28,78;0;3;31,78;1;21;Hispanic American;Biology;;;;;
1;TT-43;1;8;10108;19;2;8;1;1;19;1;20;1;34;28,78;0;3;31,78;1;21;Hispanic American;Biology;;;;;
1;TT-43;1;8;10108;20;2;6;1;1;20;0;20;1;34;28,78;0;3;31,78;1;21;Hispanic American;Biology;;;;;
1;TT-43;1;8;10108;21;2;10;1;1;20;0;20;1;34;28,78;0;3;31,78;1;21;Hispanic American;Biology;;;;;
1;TT-43;1;8;10108;22;2;2;1;1;19;1;20;1;34;28,78;0;3;31,78;1;21;Hispanic American;Biology;;;;;
1;TT-43;1;8;10108;23;2;4;1;1;19;1;20;1;34;28,78;0;3;31,78;1;21;Hispanic American;Biology;;;;;
1;TT-43;1;8;10108;24;2;5;1;1;17;3;20;1;34;28,78;0;3;31,78;1;21;Hispanic American;Biology;;;;;
1;TT-43;1;8;10108;25;2;4;1;1;19;1;20;1;34;28,78;0;3;31,78;1;21;Hispanic American;Biology;;;;;
1;TT-43;1;8;10108;26;2;9;1;1;18;2;20;1;34;28,78;0;3;31,78;1;21;Hispanic American;Biology;;;;;
1;TT-43;1;8;10108;27;2;4;1;2;19;1;16;1;34;28,78;0;3;31,78;1;21;Hispanic American;Biology;;;;;
1;TT-43;1;8;10108;28;2;5;1;1;20;0;20;1;34;28,78;0;3;31,78;1;21;Hispanic American;Biology;;;;;
1;TT-43;1;8;10108;29;2;7;1;1;20;0;20;1;34;28,78;0;3;31,78;1;21;Hispanic American;Biology;;;;;
1;TT-43;1;8;10108;30;2;5;1;1;20;0;20;1;34;28,78;0;3;31,78;1;21;Hispanic American;Biology;;;;;
1;TT-43;1;8;10108;31;2;5;1;1;20;0;20;1;34;28,78;0;3;31,78;1;21;Hispanic American;Biology;;;;;
1;TT-43;1;9;10109;1;1;4;1;1;20;0;30;4;36;28,96;0;3;31,96;0;22;mexican american;psychology;;;;;
1;TT-43;1;9;10109;2;1;4;1;1;19;1;30;4;36;28,96;0;3;31,96;0;22;mexican american;psychology;;;;;
1;TT-43;1;9;10109;3;1;8;1;1;19;1;30;4;36;28,96;0;3;31,96;0;22;mexican american;psychology;;;;;
1;TT-43;1;9;10109;4;1;5;1;1;19;1;30;4;36;28,96;0;3;31,96;0;22;mexican american;psychology;;;;;
1;TT-43;1;9;10109;5;1;1;1;1;20;0;30;4;36;28,96;0;3;31,96;0;22;mexican american;psychology;;;;;
1;TT-43;1;9;10109;6;1;8;1;1;20;0;30;4;36;28,96;0;3;31,96;0;22;mexican american;psychology;;;;;
1;TT-43;1;9;10109;7;1;7;1;1;19;1;30;4;36;28,96;0;3;31,96;0;22;mexican american;psychology;;;;;
1;TT-43;1;9;10109;8;2;7;1;1;19;1;20;4;36;28,96;0;3;31,96;0;22;mexican american;psychology;;;;;
1;TT-43;1;9;10109;9;2;1;1;1;20;0;20;4;36;28,96;0;3;31,96;0;22;mexican american;psychology;;;;;
1;TT-43;1;9;10109;10;2;10;1;1;20;0;20;4;36;28,96;0;3;31,96;0;22;mexican american;psychology;;;;;
1;TT-43;1;9;10109;11;2;3;1;1;20;0;20;4;36;28,96;0;3;31,96;0;22;mexican american;psychology;;;;;
1;TT-43;1;9;10109;12;2;9;1;1;20;0;20;4;36;28,96;0;3;31,96;0;22;mexican american;psychology;;;;;
1;TT-43;1;9;10109;13;2;3;1;1;20;0;20;4;36;28,96;0;3;31,96;0;22;mexican american;psychology;;;;;
1;TT-43;1;9;10109;14;2;5;1;1;19;1;20;4;36;28,96;0;3;31,96;0;22;mexican american;psychology;;;;;
1;TT-43;1;9;10109;15;2;5;1;1;18;2;20;4;36;28,96;0;3;31,96;0;22;mexican american;psychology;;;;;
1;TT-43;1;9;10109;16;2;8;1;1;20;0;20;4;36;28,96;0;3;31,96;0;22;mexican american;psychology;;;;;
1;TT-43;1;9;10109;17;2;3;1;1;19;1;20;4;36;28,96;0;3;31,96;0;22;mexican american;psychology;;;;;
1;TT-43;1;9;10109;18;2;8;1;1;20;0;20;4;36;28,96;0;3;31,96;0;22;mexican american;psychology;;;;;
1;TT-43;1;9;10109;19;2;9;1;1;19;1;20;4;36;28,96;0;3;31,96;0;22;mexican american;psychology;;;;;
1;TT-43;1;9;10109;20;2;10;1;1;20;0;20;4;36;28,96;0;3;31,96;0;22;mexican american;psychology;;;;;
1;TT-43;1;9;10109;21;2;6;1;1;20;0;20;4;36;28,96;0;3;31,96;0;22;mexican american;psychology;;;;;
1;TT-43;1;9;10109;22;2;4;1;1;19;1;20;4;36;28,96;0;3;31,96;0;22;mexican american;psychology;;;;;
1;TT-43;1;9;10109;23;2;10;1;1;19;1;20;4;36;28,96;0;3;31,96;0;22;mexican american;psychology;;;;;
1;TT-43;1;9;10109;24;2;10;2;1;17;3;-38;4;36;28,96;0;3;31,96;0;22;mexican american;psychology;;;;;
1;TT-43;1;9;10109;25;2;10;1;1;19;1;20;4;36;28,96;0;3;31,96;0;22;mexican american;psychology;;;;;
1;TT-43;1;9;10109;26;2;10;1;1;18;2;20;4;36;28,96;0;3;31,96;0;22;mexican american;psychology;;;;;
1;TT-43;1;9;10109;27;2;8;1;1;19;1;20;4;36;28,96;0;3;31,96;0;22;mexican american;psychology;;;;;
1;TT-43;1;9;10109;28;2;8;1;1;20;0;20;4;36;28,96;0;3;31,96;0;22;mexican american;psychology;;;;;
1;TT-43;1;9;10109;29;2;7;1;1;20;0;20;4;36;28,96;0;3;31,96;0;22;mexican american;psychology;;;;;
1;TT-43;1;9;10109;30;2;4;1;1;20;0;20;4;36;28,96;0;3;31,96;0;22;mexican american;psychology;;;;;
1;TT-43;1;9;10109;31;2;10;1;1;20;0;20;4;36;28,96;0;3;31,96;0;22;mexican american;psychology;;;;;
1;TT-43;1;10;10110;1;1;1;1;1;20;0;30;3;34;19,12;4;3;26,12;1;21;White/Latino;Biochemistry and Cell Biology;;;;;
1;TT-43;1;10;10110;2;2;7;1;1;19;1;20;3;34;19,12;4;3;26,12;1;21;White/Latino;Biochemistry and Cell Biology;;;;;
1;TT-43;1;10;10110;3;2;7;1;1;19;1;20;3;34;19,12;4;3;26,12;1;21;White/Latino;Biochemistry and Cell Biology;;;;;
1;TT-43;1;10;10110;4;2;2;1;2;19;1;16;3;34;19,12;4;3;26,12;1;21;White/Latino;Biochemistry and Cell Biology;;;;;
1;TT-43;1;10;10110;5;2;1;1;1;20;0;20;3;34;19,12;4;3;26,12;1;21;White/Latino;Biochemistry and Cell Biology;;;;;
1;TT-43;1;10;10110;6;2;2;1;1;20;0;20;3;34;19,12;4;3;26,12;1;21;White/Latino;Biochemistry and Cell Biology;;;;;
1;TT-43;1;10;10110;7;2;8;1;1;19;1;20;3;34;19,12;4;3;26,12;1;21;White/Latino;Biochemistry and Cell Biology;;;;;
1;TT-43;1;10;10110;8;2;2;1;1;19;1;20;3;34;19,12;4;3;26,12;1;21;White/Latino;Biochemistry and Cell Biology;;;;;
1;TT-43;1;10;10110;9;2;5;1;1;20;0;20;3;34;19,12;4;3;26,12;1;21;White/Latino;Biochemistry and Cell Biology;;;;;
1;TT-43;1;10;10110;10;2;7;1;1;20;0;20;3;34;19,12;4;3;26,12;1;21;White/Latino;Biochemistry and Cell Biology;;;;;
1;TT-43;1;10;10110;11;2;2;1;1;20;0;20;3;34;19,12;4;3;26,12;1;21;White/Latino;Biochemistry and Cell Biology;;;;;
1;TT-43;1;10;10110;12;2;7;1;1;20;0;20;3;34;19,12;4;3;26,12;1;21;White/Latino;Biochemistry and Cell Biology;;;;;
1;TT-43;1;10;10110;13;2;5;1;1;20;0;20;3;34;19,12;4;3;26,12;1;21;White/Latino;Biochemistry and Cell Biology;;;;;
1;TT-43;1;10;10110;14;2;8;1;1;19;1;20;3;34;19,12;4;3;26,12;1;21;White/Latino;Biochemistry and Cell Biology;;;;;
1;TT-43;1;10;10110;15;2;7;2;1;18;2;-42;3;34;19,12;4;3;26,12;1;21;White/Latino;Biochemistry and Cell Biology;;;;;
1;TT-43;1;10;10110;16;2;7;1;1;20;0;20;3;34;19,12;4;3;26,12;1;21;White/Latino;Biochemistry and Cell Biology;;;;;
1;TT-43;1;10;10110;17;2;1;1;1;19;1;20;3;34;19,12;4;3;26,12;1;21;White/Latino;Biochemistry and Cell Biology;;;;;
1;TT-43;1;10;10110;18;2;9;1;1;20;0;20;3;34;19,12;4;3;26,12;1;21;White/Latino;Biochemistry and Cell Biology;;;;;
1;TT-43;1;10;10110;19;2;6;2;1;19;1;-46;3;34;19,12;4;3;26,12;1;21;White/Latino;Biochemistry and Cell Biology;;;;;
1;TT-43;1;10;10110;20;2;9;1;1;20;0;20;3;34;19,12;4;3;26,12;1;21;White/Latino;Biochemistry and Cell Biology;;;;;
1;TT-43;1;10;10110;21;2;5;1;1;20;0;20;3;34;19,12;4;3;26,12;1;21;White/Latino;Biochemistry and Cell Biology;;;;;
1;TT-43;1;10;10110;22;2;9;1;1;19;1;20;3;34;19,12;4;3;26,12;1;21;White/Latino;Biochemistry and Cell Biology;;;;;
1;TT-43;1;10;10110;23;2;5;1;1;19;1;20;3;34;19,12;4;3;26,12;1;21;White/Latino;Biochemistry and Cell Biology;;;;;
1;TT-43;1;10;10110;24;2;2;1;1;17;3;20;3;34;19,12;4;3;26,12;1;21;White/Latino;Biochemistry and Cell Biology;;;;;
1;TT-43;1;10;10110;25;2;1;2;1;19;1;-46;3;34;19,12;4;3;26,12;1;21;White/Latino;Biochemistry and Cell Biology;;;;;
1;TT-43;1;10;10110;26;2;6;2;1;18;2;-42;3;34;19,12;4;3;26,12;1;21;White/Latino;Biochemistry and Cell Biology;;;;;
1;TT-43;1;10;10110;27;2;4;2;1;19;1;-46;3;34;19,12;4;3;26,12;1;21;White/Latino;Biochemistry and Cell Biology;;;;;
1;TT-43;1;10;10110;28;2;9;1;1;20;0;20;3;34;19,12;4;3;26,12;1;21;White/Latino;Biochemistry and Cell Biology;;;;;
1;TT-43;1;10;10110;29;2;8;1;1;20;0;20;3;34;19,12;4;3;26,12;1;21;White/Latino;Biochemistry and Cell Biology;;;;;
1;TT-43;1;10;10110;30;2;10;1;1;20;0;20;3;34;19,12;4;3;26,12;1;21;White/Latino;Biochemistry and Cell Biology;;;;;
1;TT-43;1;10;10110;31;2;6;1;1;20;0;20;3;34;19,12;4;3;26,12;1;21;White/Latino;Biochemistry and Cell Biology;;;;;
1;TT-43;1;11;10111;1;1;3;1;1;20;0;30;4;28;23,56;0;3;26,56;0;20;Chinese;Chemical Engineering;;;;;
1;TT-43;1;11;10111;2;1;8;1;1;19;1;30;4;28;23,56;0;3;26,56;0;20;Chinese;Chemical Engineering;;;;;
1;TT-43;1;11;10111;3;1;5;1;1;19;1;30;4;28;23,56;0;3;26,56;0;20;Chinese;Chemical Engineering;;;;;
1;TT-43;1;11;10111;4;2;9;1;1;19;1;20;4;28;23,56;0;3;26,56;0;20;Chinese;Chemical Engineering;;;;;
1;TT-43;1;11;10111;5;2;5;1;1;20;0;20;4;28;23,56;0;3;26,56;0;20;Chinese;Chemical Engineering;;;;;
1;TT-43;1;11;10111;6;2;1;1;1;20;0;20;4;28;23,56;0;3;26,56;0;20;Chinese;Chemical Engineering;;;;;
1;TT-43;1;11;10111;7;2;2;2;1;19;1;-46;4;28;23,56;0;3;26,56;0;20;Chinese;Chemical Engineering;;;;;
1;TT-43;1;11;10111;8;2;4;2;1;19;1;-46;4;28;23,56;0;3;26,56;0;20;Chinese;Chemical Engineering;;;;;
1;TT-43;1;11;10111;9;2;5;1;1;20;0;20;4;28;23,56;0;3;26,56;0;20;Chinese;Chemical Engineering;;;;;
1;TT-43;1;11;10111;10;2;8;1;1;20;0;20;4;28;23,56;0;3;26,56;0;20;Chinese;Chemical Engineering;;;;;
1;TT-43;1;11;10111;11;2;2;1;1;20;0;20;4;28;23,56;0;3;26,56;0;20;Chinese;Chemical Engineering;;;;;
1;TT-43;1;11;10111;12;2;10;1;1;20;0;20;4;28;23,56;0;3;26,56;0;20;Chinese;Chemical Engineering;;;;;
1;TT-43;1;11;10111;13;2;9;1;1;20;0;20;4;28;23,56;0;3;26,56;0;20;Chinese;Chemical Engineering;;;;;
1;TT-43;1;11;10111;14;2;7;1;1;19;1;20;4;28;23,56;0;3;26,56;0;20;Chinese;Chemical Engineering;;;;;
1;TT-43;1;11;10111;15;2;6;1;1;18;2;20;4;28;23,56;0;3;26,56;0;20;Chinese;Chemical Engineering;;;;;
1;TT-43;1;11;10111;16;2;8;1;1;20;0;20;4;28;23,56;0;3;26,56;0;20;Chinese;Chemical Engineering;;;;;
1;TT-43;1;11;10111;17;2;2;1;1;19;1;20;4;28;23,56;0;3;26,56;0;20;Chinese;Chemical Engineering;;;;;
1;TT-43;1;11;10111;18;2;8;1;1;20;0;20;4;28;23,56;0;3;26,56;0;20;Chinese;Chemical Engineering;;;;;
1;TT-43;1;11;10111;19;2;10;1;1;19;1;20;4;28;23,56;0;3;26,56;0;20;Chinese;Chemical Engineering;;;;;
1;TT-43;1;11;10111;20;2;7;1;1;20;0;20;4;28;23,56;0;3;26,56;0;20;Chinese;Chemical Engineering;;;;;
1;TT-43;1;11;10111;21;2;4;1;1;20;0;20;4;28;23,56;0;3;26,56;0;20;Chinese;Chemical Engineering;;;;;
1;TT-43;1;11;10111;22;2;10;1;1;19;1;20;4;28;23,56;0;3;26,56;0;20;Chinese;Chemical Engineering;;;;;
1;TT-43;1;11;10111;23;2;2;1;1;19;1;20;4;28;23,56;0;3;26,56;0;20;Chinese;Chemical Engineering;;;;;
1;TT-43;1;11;10111;24;2;1;1;1;17;3;20;4;28;23,56;0;3;26,56;0;20;Chinese;Chemical Engineering;;;;;
1;TT-43;1;11;10111;25;2;1;1;2;19;1;16;4;28;23,56;0;3;26,56;0;20;Chinese;Chemical Engineering;;;;;
1;TT-43;1;11;10111;26;2;2;2;1;18;2;-42;4;28;23,56;0;3;26,56;0;20;Chinese;Chemical Engineering;;;;;
1;TT-43;1;11;10111;27;2;3;1;1;19;1;20;4;28;23,56;0;3;26,56;0;20;Chinese;Chemical Engineering;;;;;
1;TT-43;1;11;10111;28;2;4;1;1;20;0;20;4;28;23,56;0;3;26,56;0;20;Chinese;Chemical Engineering;;;;;
1;TT-43;1;11;10111;29;2;2;1;1;20;0;20;4;28;23,56;0;3;26,56;0;20;Chinese;Chemical Engineering;;;;;
1;TT-43;1;11;10111;30;2;10;1;1;20;0;20;4;28;23,56;0;3;26,56;0;20;Chinese;Chemical Engineering;;;;;
1;TT-43;1;11;10111;31;2;7;1;1;20;0;20;4;28;23,56;0;3;26,56;0;20;Chinese;Chemical Engineering;;;;;
1;TT-43;1;12;10112;1;1;5;1;1;20;0;30;2;30;29,38;0;3;32,38;1;19;hispanic;biochemistry;;;;;
1;TT-43;1;12;10112;2;1;5;1;1;19;1;30;2;30;29,38;0;3;32,38;1;19;hispanic;biochemistry;;;;;
1;TT-43;1;12;10112;3;1;2;1;1;19;1;30;2;30;29,38;0;3;32,38;1;19;hispanic;biochemistry;;;;;
1;TT-43;1;12;10112;4;2;6;1;1;19;1;20;2;30;29,38;0;3;32,38;1;19;hispanic;biochemistry;;;;;
1;TT-43;1;12;10112;5;2;6;1;1;20;0;20;2;30;29,38;0;3;32,38;1;19;hispanic;biochemistry;;;;;
1;TT-43;1;12;10112;6;2;6;1;1;20;0;20;2;30;29,38;0;3;32,38;1;19;hispanic;biochemistry;;;;;
1;TT-43;1;12;10112;7;2;2;1;2;19;1;16;2;30;29,38;0;3;32,38;1;19;hispanic;biochemistry;;;;;
1;TT-43;1;12;10112;8;2;9;1;1;19;1;20;2;30;29,38;0;3;32,38;1;19;hispanic;biochemistry;;;;;
1;TT-43;1;12;10112;9;2;4;1;1;20;0;20;2;30;29,38;0;3;32,38;1;19;hispanic;biochemistry;;;;;
1;TT-43;1;12;10112;10;2;5;1;1;20;0;20;2;30;29,38;0;3;32,38;1;19;hispanic;biochemistry;;;;;
1;TT-43;1;12;10112;11;2;10;1;1;20;0;20;2;30;29,38;0;3;32,38;1;19;hispanic;biochemistry;;;;;
1;TT-43;1;12;10112;12;2;2;1;1;20;0;20;2;30;29,38;0;3;32,38;1;19;hispanic;biochemistry;;;;;
1;TT-43;1;12;10112;13;2;5;1;1;20;0;20;2;30;29,38;0;3;32,38;1;19;hispanic;biochemistry;;;;;
1;TT-43;1;12;10112;14;2;10;1;1;19;1;20;2;30;29,38;0;3;32,38;1;19;hispanic;biochemistry;;;;;
1;TT-43;1;12;10112;15;2;10;1;1;18;2;20;2;30;29,38;0;3;32,38;1;19;hispanic;biochemistry;;;;;
1;TT-43;1;12;10112;16;2;7;1;1;20;0;20;2;30;29,38;0;3;32,38;1;19;hispanic;biochemistry;;;;;
1;TT-43;1;12;10112;17;2;4;1;1;19;1;20;2;30;29,38;0;3;32,38;1;19;hispanic;biochemistry;;;;;
1;TT-43;1;12;10112;18;2;6;1;1;20;0;20;2;30;29,38;0;3;32,38;1;19;hispanic;biochemistry;;;;;
1;TT-43;1;12;10112;19;2;1;1;1;19;1;20;2;30;29,38;0;3;32,38;1;19;hispanic;biochemistry;;;;;
1;TT-43;1;12;10112;20;2;2;1;1;20;0;20;2;30;29,38;0;3;32,38;1;19;hispanic;biochemistry;;;;;
1;TT-43;1;12;10112;21;2;6;1;1;20;0;20;2;30;29,38;0;3;32,38;1;19;hispanic;biochemistry;;;;;
1;TT-43;1;12;10112;22;2;2;1;1;19;1;20;2;30;29,38;0;3;32,38;1;19;hispanic;biochemistry;;;;;
1;TT-43;1;12;10112;23;2;1;1;1;19;1;20;2;30;29,38;0;3;32,38;1;19;hispanic;biochemistry;;;;;
1;TT-43;1;12;10112;24;2;1;1;1;17;3;20;2;30;29,38;0;3;32,38;1;19;hispanic;biochemistry;;;;;
1;TT-43;1;12;10112;25;2;5;1;1;19;1;20;2;30;29,38;0;3;32,38;1;19;hispanic;biochemistry;;;;;
1;TT-43;1;12;10112;26;2;1;1;1;18;2;20;2;30;29,38;0;3;32,38;1;19;hispanic;biochemistry;;;;;
1;TT-43;1;12;10112;27;2;1;1;1;19;1;20;2;30;29,38;0;3;32,38;1;19;hispanic;biochemistry;;;;;
1;TT-43;1;12;10112;28;2;7;1;1;20;0;20;2;30;29,38;0;3;32,38;1;19;hispanic;biochemistry;;;;;
1;TT-43;1;12;10112;29;2;10;1;1;20;0;20;2;30;29,38;0;3;32,38;1;19;hispanic;biochemistry;;;;;
1;TT-43;1;12;10112;30;2;6;1;1;20;0;20;2;30;29,38;0;3;32,38;1;19;hispanic;biochemistry;;;;;
1;TT-43;1;12;10112;31;2;6;1;1;20;0;20;2;30;29,38;0;3;32,38;1;19;hispanic;biochemistry;;;;;
1;TT-43;1;13;10113;1;1;6;1;1;20;0;30;1;30;32,38;2;3;37,38;0;21;asian american;biology;;;;;
1;TT-43;1;13;10113;2;1;10;1;1;19;1;30;1;30;32,38;2;3;37,38;0;21;asian american;biology;;;;;
1;TT-43;1;13;10113;3;1;3;1;1;19;1;30;1;30;32,38;2;3;37,38;0;21;asian american;biology;;;;;
1;TT-43;1;13;10113;4;1;1;1;1;19;1;30;1;30;32,38;2;3;37,38;0;21;asian american;biology;;;;;
1;TT-43;1;13;10113;5;1;8;1;1;20;0;30;1;30;32,38;2;3;37,38;0;21;asian american;biology;;;;;
1;TT-43;1;13;10113;6;1;2;1;1;20;0;30;1;30;32,38;2;3;37,38;0;21;asian american;biology;;;;;
1;TT-43;1;13;10113;7;1;10;1;1;19;1;30;1;30;32,38;2;3;37,38;0;21;asian american;biology;;;;;
1;TT-43;1;13;10113;8;1;4;1;2;19;1;26;1;30;32,38;2;3;37,38;0;21;asian american;biology;;;;;
1;TT-43;1;13;10113;9;1;6;1;1;20;0;30;1;30;32,38;2;3;37,38;0;21;asian american;biology;;;;;
1;TT-43;1;13;10113;10;1;2;1;1;20;0;30;1;30;32,38;2;3;37,38;0;21;asian american;biology;;;;;
1;TT-43;1;13;10113;11;1;8;1;1;20;0;30;1;30;32,38;2;3;37,38;0;21;asian american;biology;;;;;
1;TT-43;1;13;10113;12;1;8;1;1;20;0;30;1;30;32,38;2;3;37,38;0;21;asian american;biology;;;;;
1;TT-43;1;13;10113;13;1;2;1;1;20;0;30;1;30;32,38;2;3;37,38;0;21;asian american;biology;;;;;
1;TT-43;1;13;10113;14;1;3;1;1;19;1;30;1;30;32,38;2;3;37,38;0;21;asian american;biology;;;;;
1;TT-43;1;13;10113;15;1;2;1;1;18;2;30;1;30;32,38;2;3;37,38;0;21;asian american;biology;;;;;
1;TT-43;1;13;10113;16;2;5;1;1;20;0;20;1;30;32,38;2;3;37,38;0;21;asian american;biology;;;;;
1;TT-43;1;13;10113;17;2;9;1;2;19;1;16;1;30;32,38;2;3;37,38;0;21;asian american;biology;;;;;
1;TT-43;1;13;10113;18;2;10;1;1;20;0;20;1;30;32,38;2;3;37,38;0;21;asian american;biology;;;;;
1;TT-43;1;13;10113;19;2;8;1;1;19;1;20;1;30;32,38;2;3;37,38;0;21;asian american;biology;;;;;
1;TT-43;1;13;10113;20;2;8;1;1;20;0;20;1;30;32,38;2;3;37,38;0;21;asian american;biology;;;;;
1;TT-43;1;13;10113;21;2;8;1;1;20;0;20;1;30;32,38;2;3;37,38;0;21;asian american;biology;;;;;
1;TT-43;1;13;10113;22;2;5;1;2;19;1;16;1;30;32,38;2;3;37,38;0;21;asian american;biology;;;;;
1;TT-43;1;13;10113;23;2;8;1;1;19;1;20;1;30;32,38;2;3;37,38;0;21;asian american;biology;;;;;
1;TT-43;1;13;10113;24;2;9;1;2;17;3;8;1;30;32,38;2;3;37,38;0;21;asian american;biology;;;;;
1;TT-43;1;13;10113;25;2;4;1;1;19;1;20;1;30;32,38;2;3;37,38;0;21;asian american;biology;;;;;
1;TT-43;1;13;10113;26;2;8;1;1;18;2;20;1;30;32,38;2;3;37,38;0;21;asian american;biology;;;;;
1;TT-43;1;13;10113;27;2;10;1;1;19;1;20;1;30;32,38;2;3;37,38;0;21;asian american;biology;;;;;
1;TT-43;1;13;10113;28;2;5;1;1;20;0;20;1;30;32,38;2;3;37,38;0;21;asian american;biology;;;;;
1;TT-43;1;13;10113;29;2;4;1;1;20;0;20;1;30;32,38;2;3;37,38;0;21;asian american;biology;;;;;
1;TT-43;1;13;10113;30;2;7;1;1;20;0;20;1;30;32,38;2;3;37,38;0;21;asian american;biology;;;;;
1;TT-43;1;13;10113;31;2;2;1;1;20;0;20;1;30;32,38;2;3;37,38;0;21;asian american;biology;;;;;
1;TT-43;1;14;10114;1;1;9;1;1;20;0;30;3;36;30,4;0;3;33,4;0;22;Japan;Economics;;;;;
1;TT-43;1;14;10114;2;1;1;1;1;19;1;30;3;36;30,4;0;3;33,4;0;22;Japan;Economics;;;;;
1;TT-43;1;14;10114;3;1;4;1;1;19;1;30;3;36;30,4;0;3;33,4;0;22;Japan;Economics;;;;;
1;TT-43;1;14;10114;4;1;10;1;1;19;1;30;3;36;30,4;0;3;33,4;0;22;Japan;Economics;;;;;
1;TT-43;1;14;10114;5;1;4;1;1;20;0;30;3;36;30,4;0;3;33,4;0;22;Japan;Economics;;;;;
1;TT-43;1;14;10114;6;1;5;1;1;20;0;30;3;36;30,4;0;3;33,4;0;22;Japan;Economics;;;;;
1;TT-43;1;14;10114;7;2;10;1;1;19;1;20;3;36;30,4;0;3;33,4;0;22;Japan;Economics;;;;;
1;TT-43;1;14;10114;8;2;5;1;1;19;1;20;3;36;30,4;0;3;33,4;0;22;Japan;Economics;;;;;
1;TT-43;1;14;10114;9;2;7;1;1;20;0;20;3;36;30,4;0;3;33,4;0;22;Japan;Economics;;;;;
1;TT-43;1;14;10114;10;2;3;1;1;20;0;20;3;36;30,4;0;3;33,4;0;22;Japan;Economics;;;;;
1;TT-43;1;14;10114;11;2;1;1;1;20;0;20;3;36;30,4;0;3;33,4;0;22;Japan;Economics;;;;;
1;TT-43;1;14;10114;12;2;10;1;1;20;0;20;3;36;30,4;0;3;33,4;0;22;Japan;Economics;;;;;
1;TT-43;1;14;10114;13;2;7;1;1;20;0;20;3;36;30,4;0;3;33,4;0;22;Japan;Economics;;;;;
1;TT-43;1;14;10114;14;2;6;1;1;19;1;20;3;36;30,4;0;3;33,4;0;22;Japan;Economics;;;;;
1;TT-43;1;14;10114;15;2;10;1;1;18;2;20;3;36;30,4;0;3;33,4;0;22;Japan;Economics;;;;;
1;TT-43;1;14;10114;16;2;1;1;1;20;0;20;3;36;30,4;0;3;33,4;0;22;Japan;Economics;;;;;
1;TT-43;1;14;10114;17;2;8;1;1;19;1;20;3;36;30,4;0;3;33,4;0;22;Japan;Economics;;;;;
1;TT-43;1;14;10114;18;2;3;1;1;20;0;20;3;36;30,4;0;3;33,4;0;22;Japan;Economics;;;;;
1;TT-43;1;14;10114;19;2;1;1;1;19;1;20;3;36;30,4;0;3;33,4;0;22;Japan;Economics;;;;;
1;TT-43;1;14;10114;20;2;8;1;1;20;0;20;3;36;30,4;0;3;33,4;0;22;Japan;Economics;;;;;
1;TT-43;1;14;10114;21;2;8;1;1;20;0;20;3;36;30,4;0;3;33,4;0;22;Japan;Economics;;;;;
1;TT-43;1;14;10114;22;2;8;1;1;19;1;20;3;36;30,4;0;3;33,4;0;22;Japan;Economics;;;;;
1;TT-43;1;14;10114;23;2;8;1;1;19;1;20;3;36;30,4;0;3;33,4;0;22;Japan;Economics;;;;;
1;TT-43;1;14;10114;24;2;5;1;1;17;3;20;3;36;30,4;0;3;33,4;0;22;Japan;Economics;;;;;
1;TT-43;1;14;10114;25;2;3;1;1;19;1;20;3;36;30,4;0;3;33,4;0;22;Japan;Economics;;;;;
1;TT-43;1;14;10114;26;2;3;1;1;18;2;20;3;36;30,4;0;3;33,4;0;22;Japan;Economics;;;;;
1;TT-43;1;14;10114;27;2;10;1;1;19;1;20;3;36;30,4;0;3;33,4;0;22;Japan;Economics;;;;;
1;TT-43;1;14;10114;28;2;2;1;1;20;0;20;3;36;30,4;0;3;33,4;0;22;Japan;Economics;;;;;
1;TT-43;1;14;10114;29;2;2;1;1;20;0;20;3;36;30,4;0;3;33,4;0;22;Japan;Economics;;;;;
1;TT-43;1;14;10114;30;2;7;1;1;20;0;20;3;36;30,4;0;3;33,4;0;22;Japan;Economics;;;;;
1;TT-43;1;14;10114;31;2;1;1;1;20;0;20;3;36;30,4;0;3;33,4;0;22;Japan;Economics;;;;;
1;TT-43;1;15;10115;1;1;10;1;1;20;0;30;2;37;37,78;3;3;43,78;0;21;USA;Math/Econ;;;;;
1;TT-43;1;15;10115;2;1;1;1;1;19;1;30;2;37;37,78;3;3;43,78;0;21;USA;Math/Econ;;;;;
1;TT-43;1;15;10115;3;1;5;1;1;19;1;30;2;37;37,78;3;3;43,78;0;21;USA;Math/Econ;;;;;
1;TT-43;1;15;10115;4;1;3;1;1;19;1;30;2;37;37,78;3;3;43,78;0;21;USA;Math/Econ;;;;;
1;TT-43;1;15;10115;5;1;8;1;1;20;0;30;2;37;37,78;3;3;43,78;0;21;USA;Math/Econ;;;;;
1;TT-43;1;15;10115;6;1;9;1;1;20;0;30;2;37;37,78;3;3;43,78;0;21;USA;Math/Econ;;;;;
1;TT-43;1;15;10115;7;1;8;1;1;19;1;30;2;37;37,78;3;3;43,78;0;21;USA;Math/Econ;;;;;
1;TT-43;1;15;10115;8;1;8;1;1;19;1;30;2;37;37,78;3;3;43,78;0;21;USA;Math/Econ;;;;;
1;TT-43;1;15;10115;9;1;7;1;1;20;0;30;2;37;37,78;3;3;43,78;0;21;USA;Math/Econ;;;;;
1;TT-43;1;15;10115;10;1;2;1;1;20;0;30;2;37;37,78;3;3;43,78;0;21;USA;Math/Econ;;;;;
1;TT-43;1;15;10115;11;1;3;1;1;20;0;30;2;37;37,78;3;3;43,78;0;21;USA;Math/Econ;;;;;
1;TT-43;1;15;10115;12;1;3;1;1;20;0;30;2;37;37,78;3;3;43,78;0;21;USA;Math/Econ;;;;;
1;TT-43;1;15;10115;13;1;8;1;1;20;0;30;2;37;37,78;3;3;43,78;0;21;USA;Math/Econ;;;;;
1;TT-43;1;15;10115;14;1;2;1;2;19;1;26;2;37;37,78;3;3;43,78;0;21;USA;Math/Econ;;;;;
1;TT-43;1;15;10115;15;1;9;1;1;18;2;30;2;37;37,78;3;3;43,78;0;21;USA;Math/Econ;;;;;
1;TT-43;1;15;10115;16;1;5;1;1;20;0;30;2;37;37,78;3;3;43,78;0;21;USA;Math/Econ;;;;;
1;TT-43;1;15;10115;17;1;2;1;1;19;1;30;2;37;37,78;3;3;43,78;0;21;USA;Math/Econ;;;;;
1;TT-43;1;15;10115;18;1;6;1;1;20;0;30;2;37;37,78;3;3;43,78;0;21;USA;Math/Econ;;;;;
1;TT-43;1;15;10115;19;1;5;1;1;19;1;30;2;37;37,78;3;3;43,78;0;21;USA;Math/Econ;;;;;
1;TT-43;1;15;10115;20;1;7;1;1;20;0;30;2;37;37,78;3;3;43,78;0;21;USA;Math/Econ;;;;;
1;TT-43;1;15;10115;21;1;1;1;1;20;0;30;2;37;37,78;3;3;43,78;0;21;USA;Math/Econ;;;;;
1;TT-43;1;15;10115;22;1;3;1;1;19;1;30;2;37;37,78;3;3;43,78;0;21;USA;Math/Econ;;;;;
1;TT-43;1;15;10115;23;1;2;1;1;19;1;30;2;37;37,78;3;3;43,78;0;21;USA;Math/Econ;;;;;
1;TT-43;1;15;10115;24;1;7;1;1;17;3;30;2;37;37,78;3;3;43,78;0;21;USA;Math/Econ;;;;;
1;TT-43;1;15;10115;25;1;9;1;1;19;1;30;2;37;37,78;3;3;43,78;0;21;USA;Math/Econ;;;;;
1;TT-43;1;15;10115;26;1;10;1;1;18;2;30;2;37;37,78;3;3;43,78;0;21;USA;Math/Econ;;;;;
1;TT-43;1;15;10115;27;1;6;1;1;19;1;30;2;37;37,78;3;3;43,78;0;21;USA;Math/Econ;;;;;
1;TT-43;1;15;10115;28;1;3;1;1;20;0;30;2;37;37,78;3;3;43,78;0;21;USA;Math/Econ;;;;;
1;TT-43;1;15;10115;29;1;6;1;1;20;0;30;2;37;37,78;3;3;43,78;0;21;USA;Math/Econ;;;;;
1;TT-43;1;15;10115;30;1;3;1;1;20;0;30;2;37;37,78;3;3;43,78;0;21;USA;Math/Econ;;;;;
1;TT-43;1;15;10115;31;1;4;1;1;20;0;30;2;37;37,78;3;3;43,78;0;21;USA;Math/Econ;;;;;
1;TT-43;1;16;10116;1;1;2;1;1;20;0;30;2;20;28,9;3;3;34,9;1;23;American;Biochemistry/Cell Biology;;;;;
1;TT-43;1;16;10116;2;2;4;1;1;19;1;20;2;20;28,9;3;3;34,9;1;23;American;Biochemistry/Cell Biology;;;;;
1;TT-43;1;16;10116;3;2;9;1;1;19;1;20;2;20;28,9;3;3;34,9;1;23;American;Biochemistry/Cell Biology;;;;;
1;TT-43;1;16;10116;4;2;4;1;1;19;1;20;2;20;28,9;3;3;34,9;1;23;American;Biochemistry/Cell Biology;;;;;
1;TT-43;1;16;10116;5;2;9;1;1;20;0;20;2;20;28,9;3;3;34,9;1;23;American;Biochemistry/Cell Biology;;;;;
1;TT-43;1;16;10116;6;2;7;1;1;20;0;20;2;20;28,9;3;3;34,9;1;23;American;Biochemistry/Cell Biology;;;;;
1;TT-43;1;16;10116;7;2;5;1;1;19;1;20;2;20;28,9;3;3;34,9;1;23;American;Biochemistry/Cell Biology;;;;;
1;TT-43;1;16;10116;8;2;10;1;1;19;1;20;2;20;28,9;3;3;34,9;1;23;American;Biochemistry/Cell Biology;;;;;
1;TT-43;1;16;10116;9;2;1;1;1;20;0;20;2;20;28,9;3;3;34,9;1;23;American;Biochemistry/Cell Biology;;;;;
1;TT-43;1;16;10116;10;2;5;1;1;20;0;20;2;20;28,9;3;3;34,9;1;23;American;Biochemistry/Cell Biology;;;;;
1;TT-43;1;16;10116;11;2;10;1;1;20;0;20;2;20;28,9;3;3;34,9;1;23;American;Biochemistry/Cell Biology;;;;;
1;TT-43;1;16;10116;12;2;1;1;1;20;0;20;2;20;28,9;3;3;34,9;1;23;American;Biochemistry/Cell Biology;;;;;
1;TT-43;1;16;10116;13;2;2;1;1;20;0;20;2;20;28,9;3;3;34,9;1;23;American;Biochemistry/Cell Biology;;;;;
1;TT-43;1;16;10116;14;2;7;1;1;19;1;20;2;20;28,9;3;3;34,9;1;23;American;Biochemistry/Cell Biology;;;;;
1;TT-43;1;16;10116;15;2;1;1;1;18;2;20;2;20;28,9;3;3;34,9;1;23;American;Biochemistry/Cell Biology;;;;;
1;TT-43;1;16;10116;16;2;10;1;1;20;0;20;2;20;28,9;3;3;34,9;1;23;American;Biochemistry/Cell Biology;;;;;
1;TT-43;1;16;10116;17;2;6;1;1;19;1;20;2;20;28,9;3;3;34,9;1;23;American;Biochemistry/Cell Biology;;;;;
1;TT-43;1;16;10116;18;2;4;1;1;20;0;20;2;20;28,9;3;3;34,9;1;23;American;Biochemistry/Cell Biology;;;;;
1;TT-43;1;16;10116;19;2;5;1;1;19;1;20;2;20;28,9;3;3;34,9;1;23;American;Biochemistry/Cell Biology;;;;;
1;TT-43;1;16;10116;20;2;10;1;1;20;0;20;2;20;28,9;3;3;34,9;1;23;American;Biochemistry/Cell Biology;;;;;
1;TT-43;1;16;10116;21;2;9;1;1;20;0;20;2;20;28,9;3;3;34,9;1;23;American;Biochemistry/Cell Biology;;;;;
1;TT-43;1;16;10116;22;2;9;1;1;19;1;20;2;20;28,9;3;3;34,9;1;23;American;Biochemistry/Cell Biology;;;;;
1;TT-43;1;16;10116;23;2;6;1;1;19;1;20;2;20;28,9;3;3;34,9;1;23;American;Biochemistry/Cell Biology;;;;;
1;TT-43;1;16;10116;24;2;8;1;1;17;3;20;2;20;28,9;3;3;34,9;1;23;American;Biochemistry/Cell Biology;;;;;
1;TT-43;1;16;10116;25;2;6;1;1;19;1;20;2;20;28,9;3;3;34,9;1;23;American;Biochemistry/Cell Biology;;;;;
1;TT-43;1;16;10116;26;2;5;1;1;18;2;20;2;20;28,9;3;3;34,9;1;23;American;Biochemistry/Cell Biology;;;;;
1;TT-43;1;16;10116;27;2;8;1;1;19;1;20;2;20;28,9;3;3;34,9;1;23;American;Biochemistry/Cell Biology;;;;;
1;TT-43;1;16;10116;28;2;8;1;1;20;0;20;2;20;28,9;3;3;34,9;1;23;American;Biochemistry/Cell Biology;;;;;
1;TT-43;1;16;10116;29;2;8;1;1;20;0;20;2;20;28,9;3;3;34,9;1;23;American;Biochemistry/Cell Biology;;;;;
1;TT-43;1;16;10116;30;2;3;1;1;20;0;20;2;20;28,9;3;3;34,9;1;23;American;Biochemistry/Cell Biology;;;;;
1;TT-43;1;16;10116;31;2;4;1;1;20;0;20;2;20;28,9;3;3;34,9;1;23;American;Biochemistry/Cell Biology;;;;;
1;TT-43;1;17;10117;1;1;8;1;1;20;0;30;1;41;32,68;2;3;37,68;1;19;Chinese and Vietnamese;Molecular Synthesis and Human Biology;;;;;
1;TT-43;1;17;10117;2;1;5;1;1;19;1;30;1;41;32,68;2;3;37,68;1;19;Chinese and Vietnamese;Molecular Synthesis and Human Biology;;;;;
1;TT-43;1;17;10117;3;1;10;1;2;19;1;26;1;41;32,68;2;3;37,68;1;19;Chinese and Vietnamese;Molecular Synthesis and Human Biology;;;;;
1;TT-43;1;17;10117;4;1;8;1;1;19;1;30;1;41;32,68;2;3;37,68;1;19;Chinese and Vietnamese;Molecular Synthesis and Human Biology;;;;;
1;TT-43;1;17;10117;5;1;7;1;1;20;0;30;1;41;32,68;2;3;37,68;1;19;Chinese and Vietnamese;Molecular Synthesis and Human Biology;;;;;
1;TT-43;1;17;10117;6;1;4;1;1;20;0;30;1;41;32,68;2;3;37,68;1;19;Chinese and Vietnamese;Molecular Synthesis and Human Biology;;;;;
1;TT-43;1;17;10117;7;1;6;1;1;19;1;30;1;41;32,68;2;3;37,68;1;19;Chinese and Vietnamese;Molecular Synthesis and Human Biology;;;;;
1;TT-43;1;17;10117;8;1;6;1;1;19;1;30;1;41;32,68;2;3;37,68;1;19;Chinese and Vietnamese;Molecular Synthesis and Human Biology;;;;;
1;TT-43;1;17;10117;9;1;10;1;1;20;0;30;1;41;32,68;2;3;37,68;1;19;Chinese and Vietnamese;Molecular Synthesis and Human Biology;;;;;
1;TT-43;1;17;10117;10;1;7;1;1;20;0;30;1;41;32,68;2;3;37,68;1;19;Chinese and Vietnamese;Molecular Synthesis and Human Biology;;;;;
1;TT-43;1;17;10117;11;1;5;1;1;20;0;30;1;41;32,68;2;3;37,68;1;19;Chinese and Vietnamese;Molecular Synthesis and Human Biology;;;;;
1;TT-43;1;17;10117;12;1;5;1;1;20;0;30;1;41;32,68;2;3;37,68;1;19;Chinese and Vietnamese;Molecular Synthesis and Human Biology;;;;;
1;TT-43;1;17;10117;13;1;7;1;1;20;0;30;1;41;32,68;2;3;37,68;1;19;Chinese and Vietnamese;Molecular Synthesis and Human Biology;;;;;
1;TT-43;1;17;10117;14;1;1;1;1;19;1;30;1;41;32,68;2;3;37,68;1;19;Chinese and Vietnamese;Molecular Synthesis and Human Biology;;;;;
1;TT-43;1;17;10117;15;2;6;1;1;18;2;20;1;41;32,68;2;3;37,68;1;19;Chinese and Vietnamese;Molecular Synthesis and Human Biology;;;;;
1;TT-43;1;17;10117;16;2;3;1;1;20;0;20;1;41;32,68;2;3;37,68;1;19;Chinese and Vietnamese;Molecular Synthesis and Human Biology;;;;;
1;TT-43;1;17;10117;17;2;6;1;1;19;1;20;1;41;32,68;2;3;37,68;1;19;Chinese and Vietnamese;Molecular Synthesis and Human Biology;;;;;
1;TT-43;1;17;10117;18;2;2;1;1;20;0;20;1;41;32,68;2;3;37,68;1;19;Chinese and Vietnamese;Molecular Synthesis and Human Biology;;;;;
1;TT-43;1;17;10117;19;2;7;1;1;19;1;20;1;41;32,68;2;3;37,68;1;19;Chinese and Vietnamese;Molecular Synthesis and Human Biology;;;;;
1;TT-43;1;17;10117;20;2;6;1;1;20;0;20;1;41;32,68;2;3;37,68;1;19;Chinese and Vietnamese;Molecular Synthesis and Human Biology;;;;;
1;TT-43;1;17;10117;21;2;7;1;1;20;0;20;1;41;32,68;2;3;37,68;1;19;Chinese and Vietnamese;Molecular Synthesis and Human Biology;;;;;
1;TT-43;1;17;10117;22;2;1;1;1;19;1;20;1;41;32,68;2;3;37,68;1;19;Chinese and Vietnamese;Molecular Synthesis and Human Biology;;;;;
1;TT-43;1;17;10117;23;2;7;1;1;19;1;20;1;41;32,68;2;3;37,68;1;19;Chinese and Vietnamese;Molecular Synthesis and Human Biology;;;;;
1;TT-43;1;17;10117;24;2;6;1;1;17;3;20;1;41;32,68;2;3;37,68;1;19;Chinese and Vietnamese;Molecular Synthesis and Human Biology;;;;;
1;TT-43;1;17;10117;25;2;8;1;1;19;1;20;1;41;32,68;2;3;37,68;1;19;Chinese and Vietnamese;Molecular Synthesis and Human Biology;;;;;
1;TT-43;1;17;10117;26;2;4;1;1;18;2;20;1;41;32,68;2;3;37,68;1;19;Chinese and Vietnamese;Molecular Synthesis and Human Biology;;;;;
1;TT-43;1;17;10117;27;2;9;1;1;19;1;20;1;41;32,68;2;3;37,68;1;19;Chinese and Vietnamese;Molecular Synthesis and Human Biology;;;;;
1;TT-43;1;17;10117;28;2;1;1;1;20;0;20;1;41;32,68;2;3;37,68;1;19;Chinese and Vietnamese;Molecular Synthesis and Human Biology;;;;;
1;TT-43;1;17;10117;29;2;5;1;1;20;0;20;1;41;32,68;2;3;37,68;1;19;Chinese and Vietnamese;Molecular Synthesis and Human Biology;;;;;
1;TT-43;1;17;10117;30;2;9;1;1;20;0;20;1;41;32,68;2;3;37,68;1;19;Chinese and Vietnamese;Molecular Synthesis and Human Biology;;;;;
1;TT-43;1;17;10117;31;2;7;1;1;20;0;20;1;41;32,68;2;3;37,68;1;19;Chinese and Vietnamese;Molecular Synthesis and Human Biology;;;;;
1;TT-43;1;18;10118;1;1;4;1;1;20;0;30;2;33;29,56;3;3;35,56;1;20;African-American;Ethnic Studies;;;;;
1;TT-43;1;18;10118;2;1;2;1;1;19;1;30;2;33;29,56;3;3;35,56;1;20;African-American;Ethnic Studies;;;;;
1;TT-43;1;18;10118;3;1;6;1;1;19;1;30;2;33;29,56;3;3;35,56;1;20;African-American;Ethnic Studies;;;;;
1;TT-43;1;18;10118;4;1;5;1;1;19;1;30;2;33;29,56;3;3;35,56;1;20;African-American;Ethnic Studies;;;;;
1;TT-43;1;18;10118;5;2;10;1;1;20;0;20;2;33;29,56;3;3;35,56;1;20;African-American;Ethnic Studies;;;;;
1;TT-43;1;18;10118;6;2;3;1;1;20;0;20;2;33;29,56;3;3;35,56;1;20;African-American;Ethnic Studies;;;;;
1;TT-43;1;18;10118;7;2;3;1;1;19;1;20;2;33;29,56;3;3;35,56;1;20;African-American;Ethnic Studies;;;;;
1;TT-43;1;18;10118;8;2;3;1;1;19;1;20;2;33;29,56;3;3;35,56;1;20;African-American;Ethnic Studies;;;;;
1;TT-43;1;18;10118;9;2;4;1;1;20;0;20;2;33;29,56;3;3;35,56;1;20;African-American;Ethnic Studies;;;;;
1;TT-43;1;18;10118;10;2;4;1;1;20;0;20;2;33;29,56;3;3;35,56;1;20;African-American;Ethnic Studies;;;;;
1;TT-43;1;18;10118;11;2;4;1;1;20;0;20;2;33;29,56;3;3;35,56;1;20;African-American;Ethnic Studies;;;;;
1;TT-43;1;18;10118;12;2;4;1;1;20;0;20;2;33;29,56;3;3;35,56;1;20;African-American;Ethnic Studies;;;;;
1;TT-43;1;18;10118;13;2;1;1;1;20;0;20;2;33;29,56;3;3;35,56;1;20;African-American;Ethnic Studies;;;;;
1;TT-43;1;18;10118;14;2;4;1;1;19;1;20;2;33;29,56;3;3;35,56;1;20;African-American;Ethnic Studies;;;;;
1;TT-43;1;18;10118;15;2;7;1;2;18;2;12;2;33;29,56;3;3;35,56;1;20;African-American;Ethnic Studies;;;;;
1;TT-43;1;18;10118;16;2;2;1;1;20;0;20;2;33;29,56;3;3;35,56;1;20;African-American;Ethnic Studies;;;;;
1;TT-43;1;18;10118;17;2;8;1;1;19;1;20;2;33;29,56;3;3;35,56;1;20;African-American;Ethnic Studies;;;;;
1;TT-43;1;18;10118;18;2;10;1;1;20;0;20;2;33;29,56;3;3;35,56;1;20;African-American;Ethnic Studies;;;;;
1;TT-43;1;18;10118;19;2;4;1;1;19;1;20;2;33;29,56;3;3;35,56;1;20;African-American;Ethnic Studies;;;;;
1;TT-43;1;18;10118;20;2;5;1;1;20;0;20;2;33;29,56;3;3;35,56;1;20;African-American;Ethnic Studies;;;;;
1;TT-43;1;18;10118;21;2;10;1;1;20;0;20;2;33;29,56;3;3;35,56;1;20;African-American;Ethnic Studies;;;;;
1;TT-43;1;18;10118;22;2;4;1;1;19;1;20;2;33;29,56;3;3;35,56;1;20;African-American;Ethnic Studies;;;;;
1;TT-43;1;18;10118;23;2;10;1;1;19;1;20;2;33;29,56;3;3;35,56;1;20;African-American;Ethnic Studies;;;;;
1;TT-43;1;18;10118;24;2;4;1;1;17;3;20;2;33;29,56;3;3;35,56;1;20;African-American;Ethnic Studies;;;;;
1;TT-43;1;18;10118;25;2;7;1;1;19;1;20;2;33;29,56;3;3;35,56;1;20;African-American;Ethnic Studies;;;;;
1;TT-43;1;18;10118;26;2;1;1;1;18;2;20;2;33;29,56;3;3;35,56;1;20;African-American;Ethnic Studies;;;;;
1;TT-43;1;18;10118;27;2;2;1;1;19;1;20;2;33;29,56;3;3;35,56;1;20;African-American;Ethnic Studies;;;;;
1;TT-43;1;18;10118;28;2;2;1;1;20;0;20;2;33;29,56;3;3;35,56;1;20;African-American;Ethnic Studies;;;;;
1;TT-43;1;18;10118;29;2;3;1;1;20;0;20;2;33;29,56;3;3;35,56;1;20;African-American;Ethnic Studies;;;;;
1;TT-43;1;18;10118;30;2;8;1;1;20;0;20;2;33;29,56;3;3;35,56;1;20;African-American;Ethnic Studies;;;;;
1;TT-43;1;18;10118;31;2;9;1;1;20;0;20;2;33;29,56;3;3;35,56;1;20;African-American;Ethnic Studies;;;;;
1;TT-43;1;19;10119;1;1;7;1;1;20;0;30;2;27;29,8;3;3;35,8;0;18;Mexican American;Chemistry;;;;;
1;TT-43;1;19;10119;2;1;3;1;1;19;1;30;2;27;29,8;3;3;35,8;0;18;Mexican American;Chemistry;;;;;
1;TT-43;1;19;10119;3;1;2;1;1;19;1;30;2;27;29,8;3;3;35,8;0;18;Mexican American;Chemistry;;;;;
1;TT-43;1;19;10119;4;1;8;1;1;19;1;30;2;27;29,8;3;3;35,8;0;18;Mexican American;Chemistry;;;;;
1;TT-43;1;19;10119;5;2;7;1;1;20;0;20;2;27;29,8;3;3;35,8;0;18;Mexican American;Chemistry;;;;;
1;TT-43;1;19;10119;6;2;7;1;1;20;0;20;2;27;29,8;3;3;35,8;0;18;Mexican American;Chemistry;;;;;
1;TT-43;1;19;10119;7;2;1;1;1;19;1;20;2;27;29,8;3;3;35,8;0;18;Mexican American;Chemistry;;;;;
1;TT-43;1;19;10119;8;2;3;1;1;19;1;20;2;27;29,8;3;3;35,8;0;18;Mexican American;Chemistry;;;;;
1;TT-43;1;19;10119;9;2;9;1;1;20;0;20;2;27;29,8;3;3;35,8;0;18;Mexican American;Chemistry;;;;;
1;TT-43;1;19;10119;10;2;3;1;1;20;0;20;2;27;29,8;3;3;35,8;0;18;Mexican American;Chemistry;;;;;
1;TT-43;1;19;10119;11;2;6;1;1;20;0;20;2;27;29,8;3;3;35,8;0;18;Mexican American;Chemistry;;;;;
1;TT-43;1;19;10119;12;2;6;1;1;20;0;20;2;27;29,8;3;3;35,8;0;18;Mexican American;Chemistry;;;;;
1;TT-43;1;19;10119;13;2;4;1;1;20;0;20;2;27;29,8;3;3;35,8;0;18;Mexican American;Chemistry;;;;;
1;TT-43;1;19;10119;14;2;3;1;1;19;1;20;2;27;29,8;3;3;35,8;0;18;Mexican American;Chemistry;;;;;
1;TT-43;1;19;10119;15;2;2;1;1;18;2;20;2;27;29,8;3;3;35,8;0;18;Mexican American;Chemistry;;;;;
1;TT-43;1;19;10119;16;2;4;1;1;20;0;20;2;27;29,8;3;3;35,8;0;18;Mexican American;Chemistry;;;;;
1;TT-43;1;19;10119;17;2;3;1;1;19;1;20;2;27;29,8;3;3;35,8;0;18;Mexican American;Chemistry;;;;;
1;TT-43;1;19;10119;18;2;7;1;1;20;0;20;2;27;29,8;3;3;35,8;0;18;Mexican American;Chemistry;;;;;
1;TT-43;1;19;10119;19;2;2;1;1;19;1;20;2;27;29,8;3;3;35,8;0;18;Mexican American;Chemistry;;;;;
1;TT-43;1;19;10119;20;2;9;1;1;20;0;20;2;27;29,8;3;3;35,8;0;18;Mexican American;Chemistry;;;;;
1;TT-43;1;19;10119;21;2;2;1;1;20;0;20;2;27;29,8;3;3;35,8;0;18;Mexican American;Chemistry;;;;;
1;TT-43;1;19;10119;22;2;6;1;1;19;1;20;2;27;29,8;3;3;35,8;0;18;Mexican American;Chemistry;;;;;
1;TT-43;1;19;10119;23;2;1;1;1;19;1;20;2;27;29,8;3;3;35,8;0;18;Mexican American;Chemistry;;;;;
1;TT-43;1;19;10119;24;2;6;1;1;17;3;20;2;27;29,8;3;3;35,8;0;18;Mexican American;Chemistry;;;;;
1;TT-43;1;19;10119;25;2;10;1;1;19;1;20;2;27;29,8;3;3;35,8;0;18;Mexican American;Chemistry;;;;;
1;TT-43;1;19;10119;26;2;5;1;1;18;2;20;2;27;29,8;3;3;35,8;0;18;Mexican American;Chemistry;;;;;
1;TT-43;1;19;10119;27;2;7;1;1;19;1;20;2;27;29,8;3;3;35,8;0;18;Mexican American;Chemistry;;;;;
1;TT-43;1;19;10119;28;2;10;1;1;20;0;20;2;27;29,8;3;3;35,8;0;18;Mexican American;Chemistry;;;;;
1;TT-43;1;19;10119;29;2;5;1;1;20;0;20;2;27;29,8;3;3;35,8;0;18;Mexican American;Chemistry;;;;;
1;TT-43;1;19;10119;30;2;6;1;1;20;0;20;2;27;29,8;3;3;35,8;0;18;Mexican American;Chemistry;;;;;
1;TT-43;1;19;10119;31;2;9;1;1;20;0;20;2;27;29,8;3;3;35,8;0;18;Mexican American;Chemistry;;;;;
1;TT-43;1;20;10120;1;1;9;1;1;20;0;30;4;37;32,38;0;3;35,38;0;21;Korean;Economics;;;;;
1;TT-43;1;20;10120;2;1;7;1;1;19;1;30;4;37;32,38;0;3;35,38;0;21;Korean;Economics;;;;;
1;TT-43;1;20;10120;3;1;6;1;1;19;1;30;4;37;32,38;0;3;35,38;0;21;Korean;Economics;;;;;
1;TT-43;1;20;10120;4;1;1;1;1;19;1;30;4;37;32,38;0;3;35,38;0;21;Korean;Economics;;;;;
1;TT-43;1;20;10120;5;1;4;1;1;20;0;30;4;37;32,38;0;3;35,38;0;21;Korean;Economics;;;;;
1;TT-43;1;20;10120;6;1;10;1;1;20;0;30;4;37;32,38;0;3;35,38;0;21;Korean;Economics;;;;;
1;TT-43;1;20;10120;7;1;5;1;1;19;1;30;4;37;32,38;0;3;35,38;0;21;Korean;Economics;;;;;
1;TT-43;1;20;10120;8;1;6;1;1;19;1;30;4;37;32,38;0;3;35,38;0;21;Korean;Economics;;;;;
1;TT-43;1;20;10120;9;1;6;1;1;20;0;30;4;37;32,38;0;3;35,38;0;21;Korean;Economics;;;;;
1;TT-43;1;20;10120;10;1;9;1;1;20;0;30;4;37;32,38;0;3;35,38;0;21;Korean;Economics;;;;;
1;TT-43;1;20;10120;11;1;4;1;1;20;0;30;4;37;32,38;0;3;35,38;0;21;Korean;Economics;;;;;
1;TT-43;1;20;10120;12;1;7;1;1;20;0;30;4;37;32,38;0;3;35,38;0;21;Korean;Economics;;;;;
1;TT-43;1;20;10120;13;1;4;1;1;20;0;30;4;37;32,38;0;3;35,38;0;21;Korean;Economics;;;;;
1;TT-43;1;20;10120;14;2;1;1;1;19;1;20;4;37;32,38;0;3;35,38;0;21;Korean;Economics;;;;;
1;TT-43;1;20;10120;15;2;8;1;1;18;2;20;4;37;32,38;0;3;35,38;0;21;Korean;Economics;;;;;
1;TT-43;1;20;10120;16;2;3;1;1;20;0;20;4;37;32,38;0;3;35,38;0;21;Korean;Economics;;;;;
1;TT-43;1;20;10120;17;2;7;1;1;19;1;20;4;37;32,38;0;3;35,38;0;21;Korean;Economics;;;;;
1;TT-43;1;20;10120;18;2;4;1;1;20;0;20;4;37;32,38;0;3;35,38;0;21;Korean;Economics;;;;;
1;TT-43;1;20;10120;19;2;6;1;2;19;1;16;4;37;32,38;0;3;35,38;0;21;Korean;Economics;;;;;
1;TT-43;1;20;10120;20;2;1;1;1;20;0;20;4;37;32,38;0;3;35,38;0;21;Korean;Economics;;;;;
1;TT-43;1;20;10120;21;2;3;1;1;20;0;20;4;37;32,38;0;3;35,38;0;21;Korean;Economics;;;;;
1;TT-43;1;20;10120;22;2;10;1;1;19;1;20;4;37;32,38;0;3;35,38;0;21;Korean;Economics;;;;;
1;TT-43;1;20;10120;23;2;5;1;1;19;1;20;4;37;32,38;0;3;35,38;0;21;Korean;Economics;;;;;
1;TT-43;1;20;10120;24;2;7;1;1;17;3;20;4;37;32,38;0;3;35,38;0;21;Korean;Economics;;;;;
1;TT-43;1;20;10120;25;2;7;1;1;19;1;20;4;37;32,38;0;3;35,38;0;21;Korean;Economics;;;;;
1;TT-43;1;20;10120;26;2;8;1;1;18;2;20;4;37;32,38;0;3;35,38;0;21;Korean;Economics;;;;;
1;TT-43;1;20;10120;27;2;2;1;1;19;1;20;4;37;32,38;0;3;35,38;0;21;Korean;Economics;;;;;
1;TT-43;1;20;10120;28;2;1;1;1;20;0;20;4;37;32,38;0;3;35,38;0;21;Korean;Economics;;;;;
1;TT-43;1;20;10120;29;2;6;1;1;20;0;20;4;37;32,38;0;3;35,38;0;21;Korean;Economics;;;;;
1;TT-43;1;20;10120;30;2;8;1;1;20;0;20;4;37;32,38;0;3;35,38;0;21;Korean;Economics;;;;;
1;TT-43;1;20;10120;31;2;5;1;1;20;0;20;4;37;32,38;0;3;35,38;0;21;Korean;Economics;;;;;
1;TT-43;2;1;10201;1;1;10;1;1;19;1;30;4;30;28,42;0;3;31,42;0;21;Asian American;Computer Science;;;;;
1;TT-43;2;1;10201;2;2;10;1;1;18;2;20;4;30;28,42;0;3;31,42;0;21;Asian American;Computer Science;;;;;
1;TT-43;2;1;10201;3;2;2;1;1;19;1;20;4;30;28,42;0;3;31,42;0;21;Asian American;Computer Science;;;;;
1;TT-43;2;1;10201;4;2;6;1;1;18;2;20;4;30;28,42;0;3;31,42;0;21;Asian American;Computer Science;;;;;
1;TT-43;2;1;10201;5;2;2;1;2;18;2;12;4;30;28,42;0;3;31,42;0;21;Asian American;Computer Science;;;;;
1;TT-43;2;1;10201;6;2;5;1;1;17;3;20;4;30;28,42;0;3;31,42;0;21;Asian American;Computer Science;;;;;
1;TT-43;2;1;10201;7;2;9;1;1;18;2;20;4;30;28,42;0;3;31,42;0;21;Asian American;Computer Science;;;;;
1;TT-43;2;1;10201;8;2;2;1;1;17;3;20;4;30;28,42;0;3;31,42;0;21;Asian American;Computer Science;;;;;
1;TT-43;2;1;10201;9;2;7;1;1;18;2;20;4;30;28,42;0;3;31,42;0;21;Asian American;Computer Science;;;;;
1;TT-43;2;1;10201;10;2;5;1;1;19;1;20;4;30;28,42;0;3;31,42;0;21;Asian American;Computer Science;;;;;
1;TT-43;2;1;10201;11;2;4;1;1;18;2;20;4;30;28,42;0;3;31,42;0;21;Asian American;Computer Science;;;;;
1;TT-43;2;1;10201;12;2;7;1;1;18;2;20;4;30;28,42;0;3;31,42;0;21;Asian American;Computer Science;;;;;
1;TT-43;2;1;10201;13;2;1;1;1;19;1;20;4;30;28,42;0;3;31,42;0;21;Asian American;Computer Science;;;;;
1;TT-43;2;1;10201;14;2;9;1;2;18;2;12;4;30;28,42;0;3;31,42;0;21;Asian American;Computer Science;;;;;
1;TT-43;2;1;10201;15;2;6;1;1;18;2;20;4;30;28,42;0;3;31,42;0;21;Asian American;Computer Science;;;;;
1;TT-43;2;1;10201;16;2;2;1;1;18;2;20;4;30;28,42;0;3;31,42;0;21;Asian American;Computer Science;;;;;
1;TT-43;2;1;10201;17;2;10;1;1;19;1;20;4;30;28,42;0;3;31,42;0;21;Asian American;Computer Science;;;;;
1;TT-43;2;1;10201;18;2;2;1;1;19;1;20;4;30;28,42;0;3;31,42;0;21;Asian American;Computer Science;;;;;
1;TT-43;2;1;10201;19;2;9;1;1;19;1;20;4;30;28,42;0;3;31,42;0;21;Asian American;Computer Science;;;;;
1;TT-43;2;1;10201;20;2;3;1;1;19;1;20;4;30;28,42;0;3;31,42;0;21;Asian American;Computer Science;;;;;
1;TT-43;2;1;10201;21;2;10;1;1;19;1;20;4;30;28,42;0;3;31,42;0;21;Asian American;Computer Science;;;;;
1;TT-43;2;1;10201;22;2;2;1;1;19;1;20;4;30;28,42;0;3;31,42;0;21;Asian American;Computer Science;;;;;
1;TT-43;2;1;10201;23;2;7;1;1;19;1;20;4;30;28,42;0;3;31,42;0;21;Asian American;Computer Science;;;;;
1;TT-43;2;1;10201;24;2;9;1;1;18;2;20;4;30;28,42;0;3;31,42;0;21;Asian American;Computer Science;;;;;
1;TT-43;2;1;10201;25;2;5;1;1;18;2;20;4;30;28,42;0;3;31,42;0;21;Asian American;Computer Science;;;;;
1;TT-43;2;1;10201;26;2;7;1;1;19;1;20;4;30;28,42;0;3;31,42;0;21;Asian American;Computer Science;;;;;
1;TT-43;2;1;10201;27;2;1;1;1;19;1;20;4;30;28,42;0;3;31,42;0;21;Asian American;Computer Science;;;;;
1;TT-43;2;1;10201;28;2;10;1;1;19;1;20;4;30;28,42;0;3;31,42;0;21;Asian American;Computer Science;;;;;
1;TT-43;2;1;10201;29;2;10;1;1;19;1;20;4;30;28,42;0;3;31,42;0;21;Asian American;Computer Science;;;;;
1;TT-43;2;1;10201;30;2;7;1;1;19;1;20;4;30;28,42;0;3;31,42;0;21;Asian American;Computer Science;;;;;
1;TT-43;2;1;10201;31;2;3;1;1;19;1;20;4;30;28,42;0;3;31,42;0;21;Asian American;Computer Science;;;;;
1;TT-43;2;2;10202;1;1;7;1;1;19;1;30;3;36;34,54;0;3;37,54;1;19;Taiwanese;Physics;;;;;
1;TT-43;2;2;10202;2;1;7;1;2;18;2;22;3;36;34,54;0;3;37,54;1;19;Taiwanese;Physics;;;;;
1;TT-43;2;2;10202;3;1;2;1;1;19;1;30;3;36;34,54;0;3;37,54;1;19;Taiwanese;Physics;;;;;
1;TT-43;2;2;10202;4;1;3;1;1;18;2;30;3;36;34,54;0;3;37,54;1;19;Taiwanese;Physics;;;;;
1;TT-43;2;2;10202;5;1;4;1;1;18;2;30;3;36;34,54;0;3;37,54;1;19;Taiwanese;Physics;;;;;
1;TT-43;2;2;10202;6;1;4;1;1;17;3;30;3;36;34,54;0;3;37,54;1;19;Taiwanese;Physics;;;;;
1;TT-43;2;2;10202;7;1;2;1;1;18;2;30;3;36;34,54;0;3;37,54;1;19;Taiwanese;Physics;;;;;
1;TT-43;2;2;10202;8;1;5;1;1;17;3;30;3;36;34,54;0;3;37,54;1;19;Taiwanese;Physics;;;;;
1;TT-43;2;2;10202;9;1;8;1;1;18;2;30;3;36;34,54;0;3;37,54;1;19;Taiwanese;Physics;;;;;
1;TT-43;2;2;10202;10;1;1;1;1;19;1;30;3;36;34,54;0;3;37,54;1;19;Taiwanese;Physics;;;;;
1;TT-43;2;2;10202;11;1;6;1;1;18;2;30;3;36;34,54;0;3;37,54;1;19;Taiwanese;Physics;;;;;
1;TT-43;2;2;10202;12;1;8;1;1;18;2;30;3;36;34,54;0;3;37,54;1;19;Taiwanese;Physics;;;;;
1;TT-43;2;2;10202;13;1;2;1;1;19;1;30;3;36;34,54;0;3;37,54;1;19;Taiwanese;Physics;;;;;
1;TT-43;2;2;10202;14;1;6;1;1;18;2;30;3;36;34,54;0;3;37,54;1;19;Taiwanese;Physics;;;;;
1;TT-43;2;2;10202;15;1;5;1;1;18;2;30;3;36;34,54;0;3;37,54;1;19;Taiwanese;Physics;;;;;
1;TT-43;2;2;10202;16;1;7;1;1;18;2;30;3;36;34,54;0;3;37,54;1;19;Taiwanese;Physics;;;;;
1;TT-43;2;2;10202;17;1;5;1;1;19;1;30;3;36;34,54;0;3;37,54;1;19;Taiwanese;Physics;;;;;
1;TT-43;2;2;10202;18;1;9;1;1;19;1;30;3;36;34,54;0;3;37,54;1;19;Taiwanese;Physics;;;;;
1;TT-43;2;2;10202;19;1;1;1;1;19;1;30;3;36;34,54;0;3;37,54;1;19;Taiwanese;Physics;;;;;
1;TT-43;2;2;10202;20;1;2;1;1;19;1;30;3;36;34,54;0;3;37,54;1;19;Taiwanese;Physics;;;;;
1;TT-43;2;2;10202;21;1;6;1;2;19;1;26;3;36;34,54;0;3;37,54;1;19;Taiwanese;Physics;;;;;
1;TT-43;2;2;10202;22;2;4;1;1;19;1;20;3;36;34,54;0;3;37,54;1;19;Taiwanese;Physics;;;;;
1;TT-43;2;2;10202;23;2;5;1;1;19;1;20;3;36;34,54;0;3;37,54;1;19;Taiwanese;Physics;;;;;
1;TT-43;2;2;10202;24;2;3;1;1;18;2;20;3;36;34,54;0;3;37,54;1;19;Taiwanese;Physics;;;;;
1;TT-43;2;2;10202;25;2;10;1;1;18;2;20;3;36;34,54;0;3;37,54;1;19;Taiwanese;Physics;;;;;
1;TT-43;2;2;10202;26;2;4;1;1;19;1;20;3;36;34,54;0;3;37,54;1;19;Taiwanese;Physics;;;;;
1;TT-43;2;2;10202;27;2;8;1;1;19;1;20;3;36;34,54;0;3;37,54;1;19;Taiwanese;Physics;;;;;
1;TT-43;2;2;10202;28;2;10;1;1;19;1;20;3;36;34,54;0;3;37,54;1;19;Taiwanese;Physics;;;;;
1;TT-43;2;2;10202;29;2;8;1;1;19;1;20;3;36;34,54;0;3;37,54;1;19;Taiwanese;Physics;;;;;
1;TT-43;2;2;10202;30;2;4;1;1;19;1;20;3;36;34,54;0;3;37,54;1;19;Taiwanese;Physics;;;;;
1;TT-43;2;2;10202;31;2;7;1;1;19;1;20;3;36;34,54;0;3;37,54;1;19;Taiwanese;Physics;;;;;
1;TT-43;2;3;10203;1;1;1;1;1;19;1;30;4;47;34,06;0;3;37,06;0;21;USA;Chemical Engineering;;;;;
1;TT-43;2;3;10203;2;1;5;1;2;18;2;22;4;47;34,06;0;3;37,06;0;21;USA;Chemical Engineering;;;;;
1;TT-43;2;3;10203;3;1;6;1;1;19;1;30;4;47;34,06;0;3;37,06;0;21;USA;Chemical Engineering;;;;;
1;TT-43;2;3;10203;4;1;4;1;1;18;2;30;4;47;34,06;0;3;37,06;0;21;USA;Chemical Engineering;;;;;
1;TT-43;2;3;10203;5;1;9;1;1;18;2;30;4;47;34,06;0;3;37,06;0;21;USA;Chemical Engineering;;;;;
1;TT-43;2;3;10203;6;1;9;2;1;17;3;-48;4;47;34,06;0;3;37,06;0;21;USA;Chemical Engineering;;;;;
1;TT-43;2;3;10203;7;1;1;1;1;18;2;30;4;47;34,06;0;3;37,06;0;21;USA;Chemical Engineering;;;;;
1;TT-43;2;3;10203;8;1;4;1;2;17;3;18;4;47;34,06;0;3;37,06;0;21;USA;Chemical Engineering;;;;;
1;TT-43;2;3;10203;9;1;9;1;1;18;2;30;4;47;34,06;0;3;37,06;0;21;USA;Chemical Engineering;;;;;
1;TT-43;2;3;10203;10;1;3;1;1;19;1;30;4;47;34,06;0;3;37,06;0;21;USA;Chemical Engineering;;;;;
1;TT-43;2;3;10203;11;1;8;1;1;18;2;30;4;47;34,06;0;3;37,06;0;21;USA;Chemical Engineering;;;;;
1;TT-43;2;3;10203;12;1;6;1;1;18;2;30;4;47;34,06;0;3;37,06;0;21;USA;Chemical Engineering;;;;;
1;TT-43;2;3;10203;13;1;4;1;1;19;1;30;4;47;34,06;0;3;37,06;0;21;USA;Chemical Engineering;;;;;
1;TT-43;2;3;10203;14;1;5;1;1;18;2;30;4;47;34,06;0;3;37,06;0;21;USA;Chemical Engineering;;;;;
1;TT-43;2;3;10203;15;1;5;1;1;18;2;30;4;47;34,06;0;3;37,06;0;21;USA;Chemical Engineering;;;;;
1;TT-43;2;3;10203;16;1;8;1;1;18;2;30;4;47;34,06;0;3;37,06;0;21;USA;Chemical Engineering;;;;;
1;TT-43;2;3;10203;17;1;3;1;1;19;1;30;4;47;34,06;0;3;37,06;0;21;USA;Chemical Engineering;;;;;
1;TT-43;2;3;10203;18;1;8;1;1;19;1;30;4;47;34,06;0;3;37,06;0;21;USA;Chemical Engineering;;;;;
1;TT-43;2;3;10203;19;1;1;1;1;19;1;30;4;47;34,06;0;3;37,06;0;21;USA;Chemical Engineering;;;;;
1;TT-43;2;3;10203;20;1;4;1;1;19;1;30;4;47;34,06;0;3;37,06;0;21;USA;Chemical Engineering;;;;;
1;TT-43;2;3;10203;21;1;4;1;1;19;1;30;4;47;34,06;0;3;37,06;0;21;USA;Chemical Engineering;;;;;
1;TT-43;2;3;10203;22;1;3;1;1;19;1;30;4;47;34,06;0;3;37,06;0;21;USA;Chemical Engineering;;;;;
1;TT-43;2;3;10203;23;1;8;1;1;19;1;30;4;47;34,06;0;3;37,06;0;21;USA;Chemical Engineering;;;;;
1;TT-43;2;3;10203;24;1;10;1;1;18;2;30;4;47;34,06;0;3;37,06;0;21;USA;Chemical Engineering;;;;;
1;TT-43;2;3;10203;25;1;7;1;1;18;2;30;4;47;34,06;0;3;37,06;0;21;USA;Chemical Engineering;;;;;
1;TT-43;2;3;10203;26;1;6;1;1;19;1;30;4;47;34,06;0;3;37,06;0;21;USA;Chemical Engineering;;;;;
1;TT-43;2;3;10203;27;1;8;1;1;19;1;30;4;47;34,06;0;3;37,06;0;21;USA;Chemical Engineering;;;;;
1;TT-43;2;3;10203;28;1;6;1;1;19;1;30;4;47;34,06;0;3;37,06;0;21;USA;Chemical Engineering;;;;;
1;TT-43;2;3;10203;29;2;3;1;1;19;1;20;4;47;34,06;0;3;37,06;0;21;USA;Chemical Engineering;;;;;
1;TT-43;2;3;10203;30;2;1;1;1;19;1;20;4;47;34,06;0;3;37,06;0;21;USA;Chemical Engineering;;;;;
1;TT-43;2;3;10203;31;2;5;1;1;19;1;20;4;47;34,06;0;3;37,06;0;21;USA;Chemical Engineering;;;;;
1;TT-43;2;4;10204;1;1;2;1;1;19;1;30;4;17;29,38;5;3;37,38;0;22;Chinese;Computer Science;;;;;
1;TT-43;2;4;10204;2;1;4;1;1;18;2;30;4;17;29,38;5;3;37,38;0;22;Chinese;Computer Science;;;;;
1;TT-43;2;4;10204;3;1;3;1;1;19;1;30;4;17;29,38;5;3;37,38;0;22;Chinese;Computer Science;;;;;
1;TT-43;2;4;10204;4;2;7;1;1;18;2;20;4;17;29,38;5;3;37,38;0;22;Chinese;Computer Science;;;;;
1;TT-43;2;4;10204;5;2;5;1;1;18;2;20;4;17;29,38;5;3;37,38;0;22;Chinese;Computer Science;;;;;
1;TT-43;2;4;10204;6;2;3;1;1;17;3;20;4;17;29,38;5;3;37,38;0;22;Chinese;Computer Science;;;;;
1;TT-43;2;4;10204;7;2;2;1;1;18;2;20;4;17;29,38;5;3;37,38;0;22;Chinese;Computer Science;;;;;
1;TT-43;2;4;10204;8;2;5;1;1;17;3;20;4;17;29,38;5;3;37,38;0;22;Chinese;Computer Science;;;;;
1;TT-43;2;4;10204;9;2;5;1;1;18;2;20;4;17;29,38;5;3;37,38;0;22;Chinese;Computer Science;;;;;
1;TT-43;2;4;10204;10;2;2;1;2;19;1;16;4;17;29,38;5;3;37,38;0;22;Chinese;Computer Science;;;;;
1;TT-43;2;4;10204;11;2;1;1;1;18;2;20;4;17;29,38;5;3;37,38;0;22;Chinese;Computer Science;;;;;
1;TT-43;2;4;10204;12;2;4;1;1;18;2;20;4;17;29,38;5;3;37,38;0;22;Chinese;Computer Science;;;;;
1;TT-43;2;4;10204;13;2;7;1;1;19;1;20;4;17;29,38;5;3;37,38;0;22;Chinese;Computer Science;;;;;
1;TT-43;2;4;10204;14;2;5;1;1;18;2;20;4;17;29,38;5;3;37,38;0;22;Chinese;Computer Science;;;;;
1;TT-43;2;4;10204;15;2;1;1;1;18;2;20;4;17;29,38;5;3;37,38;0;22;Chinese;Computer Science;;;;;
1;TT-43;2;4;10204;16;2;4;1;1;18;2;20;4;17;29,38;5;3;37,38;0;22;Chinese;Computer Science;;;;;
1;TT-43;2;4;10204;17;2;4;1;1;19;1;20;4;17;29,38;5;3;37,38;0;22;Chinese;Computer Science;;;;;
1;TT-43;2;4;10204;18;2;6;1;1;19;1;20;4;17;29,38;5;3;37,38;0;22;Chinese;Computer Science;;;;;
1;TT-43;2;4;10204;19;2;10;1;1;19;1;20;4;17;29,38;5;3;37,38;0;22;Chinese;Computer Science;;;;;
1;TT-43;2;4;10204;20;2;5;1;1;19;1;20;4;17;29,38;5;3;37,38;0;22;Chinese;Computer Science;;;;;
1;TT-43;2;4;10204;21;2;5;1;1;19;1;20;4;17;29,38;5;3;37,38;0;22;Chinese;Computer Science;;;;;
1;TT-43;2;4;10204;22;2;1;1;1;19;1;20;4;17;29,38;5;3;37,38;0;22;Chinese;Computer Science;;;;;
1;TT-43;2;4;10204;23;2;2;1;1;19;1;20;4;17;29,38;5;3;37,38;0;22;Chinese;Computer Science;;;;;
1;TT-43;2;4;10204;24;2;5;1;1;18;2;20;4;17;29,38;5;3;37,38;0;22;Chinese;Computer Science;;;;;
1;TT-43;2;4;10204;25;2;7;1;1;18;2;20;4;17;29,38;5;3;37,38;0;22;Chinese;Computer Science;;;;;
1;TT-43;2;4;10204;26;2;8;1;1;19;1;20;4;17;29,38;5;3;37,38;0;22;Chinese;Computer Science;;;;;
1;TT-43;2;4;10204;27;2;7;1;1;19;1;20;4;17;29,38;5;3;37,38;0;22;Chinese;Computer Science;;;;;
1;TT-43;2;4;10204;28;2;7;1;1;19;1;20;4;17;29,38;5;3;37,38;0;22;Chinese;Computer Science;;;;;
1;TT-43;2;4;10204;29;2;8;1;1;19;1;20;4;17;29,38;5;3;37,38;0;22;Chinese;Computer Science;;;;;
1;TT-43;2;4;10204;30;2;10;1;1;19;1;20;4;17;29,38;5;3;37,38;0;22;Chinese;Computer Science;;;;;
1;TT-43;2;4;10204;31;2;9;1;1;19;1;20;4;17;29,38;5;3;37,38;0;22;Chinese;Computer Science;;;;;
1;TT-43;2;5;10205;1;1;9;1;1;19;1;30;4;28;30,1;0;3;33,1;0;20;American;Aerospace Engineering;;;;;
1;TT-43;2;5;10205;2;1;6;1;1;18;2;30;4;28;30,1;0;3;33,1;0;20;American;Aerospace Engineering;;;;;
1;TT-43;2;5;10205;3;1;1;1;1;19;1;30;4;28;30,1;0;3;33,1;0;20;American;Aerospace Engineering;;;;;
1;TT-43;2;5;10205;4;1;3;1;1;18;2;30;4;28;30,1;0;3;33,1;0;20;American;Aerospace Engineering;;;;;
1;TT-43;2;5;10205;5;1;5;1;1;18;2;30;4;28;30,1;0;3;33,1;0;20;American;Aerospace Engineering;;;;;
1;TT-43;2;5;10205;6;1;2;1;2;17;3;18;4;28;30,1;0;3;33,1;0;20;American;Aerospace Engineering;;;;;
1;TT-43;2;5;10205;7;1;3;1;1;18;2;30;4;28;30,1;0;3;33,1;0;20;American;Aerospace Engineering;;;;;
1;TT-43;2;5;10205;8;2;7;1;1;17;3;20;4;28;30,1;0;3;33,1;0;20;American;Aerospace Engineering;;;;;
1;TT-43;2;5;10205;9;2;8;1;1;18;2;20;4;28;30,1;0;3;33,1;0;20;American;Aerospace Engineering;;;;;
1;TT-43;2;5;10205;10;2;6;1;1;19;1;20;4;28;30,1;0;3;33,1;0;20;American;Aerospace Engineering;;;;;
1;TT-43;2;5;10205;11;2;3;1;1;18;2;20;4;28;30,1;0;3;33,1;0;20;American;Aerospace Engineering;;;;;
1;TT-43;2;5;10205;12;2;9;1;1;18;2;20;4;28;30,1;0;3;33,1;0;20;American;Aerospace Engineering;;;;;
1;TT-43;2;5;10205;13;2;6;1;1;19;1;20;4;28;30,1;0;3;33,1;0;20;American;Aerospace Engineering;;;;;
1;TT-43;2;5;10205;14;2;10;1;1;18;2;20;4;28;30,1;0;3;33,1;0;20;American;Aerospace Engineering;;;;;
1;TT-43;2;5;10205;15;2;1;1;1;18;2;20;4;28;30,1;0;3;33,1;0;20;American;Aerospace Engineering;;;;;
1;TT-43;2;5;10205;16;2;1;1;1;18;2;20;4;28;30,1;0;3;33,1;0;20;American;Aerospace Engineering;;;;;
1;TT-43;2;5;10205;17;2;7;1;1;19;1;20;4;28;30,1;0;3;33,1;0;20;American;Aerospace Engineering;;;;;
1;TT-43;2;5;10205;18;2;5;1;2;19;1;16;4;28;30,1;0;3;33,1;0;20;American;Aerospace Engineering;;;;;
1;TT-43;2;5;10205;19;2;4;1;1;19;1;20;4;28;30,1;0;3;33,1;0;20;American;Aerospace Engineering;;;;;
1;TT-43;2;5;10205;20;2;2;1;1;19;1;20;4;28;30,1;0;3;33,1;0;20;American;Aerospace Engineering;;;;;
1;TT-43;2;5;10205;21;2;3;1;1;19;1;20;4;28;30,1;0;3;33,1;0;20;American;Aerospace Engineering;;;;;
1;TT-43;2;5;10205;22;2;7;1;1;19;1;20;4;28;30,1;0;3;33,1;0;20;American;Aerospace Engineering;;;;;
1;TT-43;2;5;10205;23;2;4;1;1;19;1;20;4;28;30,1;0;3;33,1;0;20;American;Aerospace Engineering;;;;;
1;TT-43;2;5;10205;24;2;7;1;1;18;2;20;4;28;30,1;0;3;33,1;0;20;American;Aerospace Engineering;;;;;
1;TT-43;2;5;10205;25;2;1;1;1;18;2;20;4;28;30,1;0;3;33,1;0;20;American;Aerospace Engineering;;;;;
1;TT-43;2;5;10205;26;2;5;1;1;19;1;20;4;28;30,1;0;3;33,1;0;20;American;Aerospace Engineering;;;;;
1;TT-43;2;5;10205;27;2;4;1;1;19;1;20;4;28;30,1;0;3;33,1;0;20;American;Aerospace Engineering;;;;;
1;TT-43;2;5;10205;28;2;3;1;1;19;1;20;4;28;30,1;0;3;33,1;0;20;American;Aerospace Engineering;;;;;
1;TT-43;2;5;10205;29;2;10;1;1;19;1;20;4;28;30,1;0;3;33,1;0;20;American;Aerospace Engineering;;;;;
1;TT-43;2;5;10205;30;2;6;1;1;19;1;20;4;28;30,1;0;3;33,1;0;20;American;Aerospace Engineering;;;;;
1;TT-43;2;5;10205;31;2;2;1;2;19;1;16;4;28;30,1;0;3;33,1;0;20;American;Aerospace Engineering;;;;;
1;TT-43;2;6;10206;1;1;7;1;1;19;1;30;4;31;32,14;0;3;35,14;1;20;African- American;Public Health;;;;;
1;TT-43;2;6;10206;2;1;8;1;1;18;2;30;4;31;32,14;0;3;35,14;1;20;African- American;Public Health;;;;;
1;TT-43;2;6;10206;3;1;7;1;1;19;1;30;4;31;32,14;0;3;35,14;1;20;African- American;Public Health;;;;;
1;TT-43;2;6;10206;4;1;8;1;1;18;2;30;4;31;32,14;0;3;35,14;1;20;African- American;Public Health;;;;;
1;TT-43;2;6;10206;5;1;10;1;1;18;2;30;4;31;32,14;0;3;35,14;1;20;African- American;Public Health;;;;;
1;TT-43;2;6;10206;6;1;7;1;1;17;3;30;4;31;32,14;0;3;35,14;1;20;African- American;Public Health;;;;;
1;TT-43;2;6;10206;7;1;7;1;1;18;2;30;4;31;32,14;0;3;35,14;1;20;African- American;Public Health;;;;;
1;TT-43;2;6;10206;8;1;9;1;1;17;3;30;4;31;32,14;0;3;35,14;1;20;African- American;Public Health;;;;;
1;TT-43;2;6;10206;9;1;7;1;1;18;2;30;4;31;32,14;0;3;35,14;1;20;African- American;Public Health;;;;;
1;TT-43;2;6;10206;10;1;10;1;1;19;1;30;4;31;32,14;0;3;35,14;1;20;African- American;Public Health;;;;;
1;TT-43;2;6;10206;11;1;5;1;1;18;2;30;4;31;32,14;0;3;35,14;1;20;African- American;Public Health;;;;;
1;TT-43;2;6;10206;12;1;6;1;1;18;2;30;4;31;32,14;0;3;35,14;1;20;African- American;Public Health;;;;;
1;TT-43;2;6;10206;13;1;9;1;2;19;1;26;4;31;32,14;0;3;35,14;1;20;African- American;Public Health;;;;;
1;TT-43;2;6;10206;14;2;6;1;1;18;2;20;4;31;32,14;0;3;35,14;1;20;African- American;Public Health;;;;;
1;TT-43;2;6;10206;15;2;9;1;1;18;2;20;4;31;32,14;0;3;35,14;1;20;African- American;Public Health;;;;;
1;TT-43;2;6;10206;16;2;4;1;1;18;2;20;4;31;32,14;0;3;35,14;1;20;African- American;Public Health;;;;;
1;TT-43;2;6;10206;17;2;8;1;1;19;1;20;4;31;32,14;0;3;35,14;1;20;African- American;Public Health;;;;;
1;TT-43;2;6;10206;18;2;1;1;1;19;1;20;4;31;32,14;0;3;35,14;1;20;African- American;Public Health;;;;;
1;TT-43;2;6;10206;19;2;6;1;1;19;1;20;4;31;32,14;0;3;35,14;1;20;African- American;Public Health;;;;;
1;TT-43;2;6;10206;20;2;7;1;1;19;1;20;4;31;32,14;0;3;35,14;1;20;African- American;Public Health;;;;;
1;TT-43;2;6;10206;21;2;3;1;1;19;1;20;4;31;32,14;0;3;35,14;1;20;African- American;Public Health;;;;;
1;TT-43;2;6;10206;22;2;6;1;1;19;1;20;4;31;32,14;0;3;35,14;1;20;African- American;Public Health;;;;;
1;TT-43;2;6;10206;23;2;9;1;2;19;1;16;4;31;32,14;0;3;35,14;1;20;African- American;Public Health;;;;;
1;TT-43;2;6;10206;24;2;4;1;1;18;2;20;4;31;32,14;0;3;35,14;1;20;African- American;Public Health;;;;;
1;TT-43;2;6;10206;25;2;6;1;1;18;2;20;4;31;32,14;0;3;35,14;1;20;African- American;Public Health;;;;;
1;TT-43;2;6;10206;26;2;9;1;1;19;1;20;4;31;32,14;0;3;35,14;1;20;African- American;Public Health;;;;;
1;TT-43;2;6;10206;27;2;6;1;2;19;1;16;4;31;32,14;0;3;35,14;1;20;African- American;Public Health;;;;;
1;TT-43;2;6;10206;28;2;2;1;1;19;1;20;4;31;32,14;0;3;35,14;1;20;African- American;Public Health;;;;;
1;TT-43;2;6;10206;29;2;1;1;1;19;1;20;4;31;32,14;0;3;35,14;1;20;African- American;Public Health;;;;;
1;TT-43;2;6;10206;30;2;5;1;1;19;1;20;4;31;32,14;0;3;35,14;1;20;African- American;Public Health;;;;;
1;TT-43;2;6;10206;31;2;9;1;1;19;1;20;4;31;32,14;0;3;35,14;1;20;African- American;Public Health;;;;;
1;TT-43;2;7;10207;1;1;8;1;1;19;1;30;4;43;28,3;5;3;36,3;0;20;White;Management Science;;;;;
1;TT-43;2;7;10207;2;2;3;1;1;18;2;20;4;43;28,3;5;3;36,3;0;20;White;Management Science;;;;;
1;TT-43;2;7;10207;3;2;5;1;1;19;1;20;4;43;28,3;5;3;36,3;0;20;White;Management Science;;;;;
1;TT-43;2;7;10207;4;2;9;1;2;18;2;12;4;43;28,3;5;3;36,3;0;20;White;Management Science;;;;;
1;TT-43;2;7;10207;5;2;7;1;1;18;2;20;4;43;28,3;5;3;36,3;0;20;White;Management Science;;;;;
1;TT-43;2;7;10207;6;2;8;1;1;17;3;20;4;43;28,3;5;3;36,3;0;20;White;Management Science;;;;;
1;TT-43;2;7;10207;7;2;4;1;2;18;2;12;4;43;28,3;5;3;36,3;0;20;White;Management Science;;;;;
1;TT-43;2;7;10207;8;2;1;1;1;17;3;20;4;43;28,3;5;3;36,3;0;20;White;Management Science;;;;;
1;TT-43;2;7;10207;9;2;3;1;1;18;2;20;4;43;28,3;5;3;36,3;0;20;White;Management Science;;;;;
1;TT-43;2;7;10207;10;2;8;1;1;19;1;20;4;43;28,3;5;3;36,3;0;20;White;Management Science;;;;;
1;TT-43;2;7;10207;11;2;3;1;1;18;2;20;4;43;28,3;5;3;36,3;0;20;White;Management Science;;;;;
1;TT-43;2;7;10207;12;2;3;1;1;18;2;20;4;43;28,3;5;3;36,3;0;20;White;Management Science;;;;;
1;TT-43;2;7;10207;13;2;3;1;1;19;1;20;4;43;28,3;5;3;36,3;0;20;White;Management Science;;;;;
1;TT-43;2;7;10207;14;2;2;1;1;18;2;20;4;43;28,3;5;3;36,3;0;20;White;Management Science;;;;;
1;TT-43;2;7;10207;15;2;6;1;1;18;2;20;4;43;28,3;5;3;36,3;0;20;White;Management Science;;;;;
1;TT-43;2;7;10207;16;2;1;1;1;18;2;20;4;43;28,3;5;3;36,3;0;20;White;Management Science;;;;;
1;TT-43;2;7;10207;17;2;10;1;1;19;1;20;4;43;28,3;5;3;36,3;0;20;White;Management Science;;;;;
1;TT-43;2;7;10207;18;2;10;1;1;19;1;20;4;43;28,3;5;3;36,3;0;20;White;Management Science;;;;;
1;TT-43;2;7;10207;19;2;5;1;1;19;1;20;4;43;28,3;5;3;36,3;0;20;White;Management Science;;;;;
1;TT-43;2;7;10207;20;2;7;1;1;19;1;20;4;43;28,3;5;3;36,3;0;20;White;Management Science;;;;;
1;TT-43;2;7;10207;21;2;7;1;1;19;1;20;4;43;28,3;5;3;36,3;0;20;White;Management Science;;;;;
1;TT-43;2;7;10207;22;2;9;1;1;19;1;20;4;43;28,3;5;3;36,3;0;20;White;Management Science;;;;;
1;TT-43;2;7;10207;23;2;10;1;1;19;1;20;4;43;28,3;5;3;36,3;0;20;White;Management Science;;;;;
1;TT-43;2;7;10207;24;2;5;1;1;18;2;20;4;43;28,3;5;3;36,3;0;20;White;Management Science;;;;;
1;TT-43;2;7;10207;25;2;6;1;1;18;2;20;4;43;28,3;5;3;36,3;0;20;White;Management Science;;;;;
1;TT-43;2;7;10207;26;2;5;1;1;19;1;20;4;43;28,3;5;3;36,3;0;20;White;Management Science;;;;;
1;TT-43;2;7;10207;27;2;2;1;1;19;1;20;4;43;28,3;5;3;36,3;0;20;White;Management Science;;;;;
1;TT-43;2;7;10207;28;2;1;1;2;19;1;16;4;43;28,3;5;3;36,3;0;20;White;Management Science;;;;;
1;TT-43;2;7;10207;29;2;6;1;1;19;1;20;4;43;28,3;5;3;36,3;0;20;White;Management Science;;;;;
1;TT-43;2;7;10207;30;2;10;1;1;19;1;20;4;43;28,3;5;3;36,3;0;20;White;Management Science;;;;;
1;TT-43;2;7;10207;31;2;7;1;1;19;1;20;4;43;28,3;5;3;36,3;0;20;White;Management Science;;;;;
1;TT-43;2;8;10208;1;1;8;1;1;19;1;30;4;42;32,68;5;3;40,68;0;30;French;Philosophy;;;;;
1;TT-43;2;8;10208;2;1;8;1;1;18;2;30;4;42;32,68;5;3;40,68;0;30;French;Philosophy;;;;;
1;TT-43;2;8;10208;3;1;10;1;1;19;1;30;4;42;32,68;5;3;40,68;0;30;French;Philosophy;;;;;
1;TT-43;2;8;10208;4;1;5;1;1;18;2;30;4;42;32,68;5;3;40,68;0;30;French;Philosophy;;;;;
1;TT-43;2;8;10208;5;1;8;1;1;18;2;30;4;42;32,68;5;3;40,68;0;30;French;Philosophy;;;;;
1;TT-43;2;8;10208;6;1;10;1;1;17;3;30;4;42;32,68;5;3;40,68;0;30;French;Philosophy;;;;;
1;TT-43;2;8;10208;7;1;10;1;1;18;2;30;4;42;32,68;5;3;40,68;0;30;French;Philosophy;;;;;
1;TT-43;2;8;10208;8;1;10;1;1;17;3;30;4;42;32,68;5;3;40,68;0;30;French;Philosophy;;;;;
1;TT-43;2;8;10208;9;1;2;1;2;18;2;22;4;42;32,68;5;3;40,68;0;30;French;Philosophy;;;;;
1;TT-43;2;8;10208;10;1;4;1;1;19;1;30;4;42;32,68;5;3;40,68;0;30;French;Philosophy;;;;;
1;TT-43;2;8;10208;11;1;2;1;2;18;2;22;4;42;32,68;5;3;40,68;0;30;French;Philosophy;;;;;
1;TT-43;2;8;10208;12;1;5;1;1;18;2;30;4;42;32,68;5;3;40,68;0;30;French;Philosophy;;;;;
1;TT-43;2;8;10208;13;1;10;1;1;19;1;30;4;42;32,68;5;3;40,68;0;30;French;Philosophy;;;;;
1;TT-43;2;8;10208;14;1;10;1;1;18;2;30;4;42;32,68;5;3;40,68;0;30;French;Philosophy;;;;;
1;TT-43;2;8;10208;15;1;3;1;1;18;2;30;4;42;32,68;5;3;40,68;0;30;French;Philosophy;;;;;
1;TT-43;2;8;10208;16;1;2;1;1;18;2;30;4;42;32,68;5;3;40,68;0;30;French;Philosophy;;;;;
1;TT-43;2;8;10208;17;2;9;1;1;19;1;20;4;42;32,68;5;3;40,68;0;30;French;Philosophy;;;;;
1;TT-43;2;8;10208;18;2;9;1;1;19;1;20;4;42;32,68;5;3;40,68;0;30;French;Philosophy;;;;;
1;TT-43;2;8;10208;19;2;2;1;1;19;1;20;4;42;32,68;5;3;40,68;0;30;French;Philosophy;;;;;
1;TT-43;2;8;10208;20;2;8;1;1;19;1;20;4;42;32,68;5;3;40,68;0;30;French;Philosophy;;;;;
1;TT-43;2;8;10208;21;2;1;1;1;19;1;20;4;42;32,68;5;3;40,68;0;30;French;Philosophy;;;;;
1;TT-43;2;8;10208;22;2;8;1;1;19;1;20;4;42;32,68;5;3;40,68;0;30;French;Philosophy;;;;;
1;TT-43;2;8;10208;23;2;3;1;1;19;1;20;4;42;32,68;5;3;40,68;0;30;French;Philosophy;;;;;
1;TT-43;2;8;10208;24;2;8;1;2;18;2;12;4;42;32,68;5;3;40,68;0;30;French;Philosophy;;;;;
1;TT-43;2;8;10208;25;2;1;1;1;18;2;20;4;42;32,68;5;3;40,68;0;30;French;Philosophy;;;;;
1;TT-43;2;8;10208;26;2;1;1;1;19;1;20;4;42;32,68;5;3;40,68;0;30;French;Philosophy;;;;;
1;TT-43;2;8;10208;27;2;3;1;1;19;1;20;4;42;32,68;5;3;40,68;0;30;French;Philosophy;;;;;
1;TT-43;2;8;10208;28;2;2;1;1;19;1;20;4;42;32,68;5;3;40,68;0;30;French;Philosophy;;;;;
1;TT-43;2;8;10208;29;2;7;1;1;19;1;20;4;42;32,68;5;3;40,68;0;30;French;Philosophy;;;;;
1;TT-43;2;8;10208;30;2;7;1;1;19;1;20;4;42;32,68;5;3;40,68;0;30;French;Philosophy;;;;;
1;TT-43;2;8;10208;31;2;3;1;1;19;1;20;4;42;32,68;5;3;40,68;0;30;French;Philosophy;;;;;
1;TT-43;2;9;10209;1;1;3;1;1;19;1;30;2;40;29,32;3;3;35,32;0;18;China;Physics;;;;;
1;TT-43;2;9;10209;2;1;2;1;1;18;2;30;2;40;29,32;3;3;35,32;0;18;China;Physics;;;;;
1;TT-43;2;9;10209;3;1;7;1;1;19;1;30;2;40;29,32;3;3;35,32;0;18;China;Physics;;;;;
1;TT-43;2;9;10209;4;1;2;1;1;18;2;30;2;40;29,32;3;3;35,32;0;18;China;Physics;;;;;
1;TT-43;2;9;10209;5;1;3;1;1;18;2;30;2;40;29,32;3;3;35,32;0;18;China;Physics;;;;;
1;TT-43;2;9;10209;6;1;6;1;2;17;3;18;2;40;29,32;3;3;35,32;0;18;China;Physics;;;;;
1;TT-43;2;9;10209;7;2;1;1;1;18;2;20;2;40;29,32;3;3;35,32;0;18;China;Physics;;;;;
1;TT-43;2;9;10209;8;2;8;1;2;17;3;8;2;40;29,32;3;3;35,32;0;18;China;Physics;;;;;
1;TT-43;2;9;10209;9;2;9;1;1;18;2;20;2;40;29,32;3;3;35,32;0;18;China;Physics;;;;;
1;TT-43;2;9;10209;10;2;3;1;1;19;1;20;2;40;29,32;3;3;35,32;0;18;China;Physics;;;;;
1;TT-43;2;9;10209;11;2;6;1;1;18;2;20;2;40;29,32;3;3;35,32;0;18;China;Physics;;;;;
1;TT-43;2;9;10209;12;2;8;1;1;18;2;20;2;40;29,32;3;3;35,32;0;18;China;Physics;;;;;
1;TT-43;2;9;10209;13;2;5;1;1;19;1;20;2;40;29,32;3;3;35,32;0;18;China;Physics;;;;;
1;TT-43;2;9;10209;14;2;4;1;1;18;2;20;2;40;29,32;3;3;35,32;0;18;China;Physics;;;;;
1;TT-43;2;9;10209;15;2;4;1;1;18;2;20;2;40;29,32;3;3;35,32;0;18;China;Physics;;;;;
1;TT-43;2;9;10209;16;2;10;1;1;18;2;20;2;40;29,32;3;3;35,32;0;18;China;Physics;;;;;
1;TT-43;2;9;10209;17;2;6;1;1;19;1;20;2;40;29,32;3;3;35,32;0;18;China;Physics;;;;;
1;TT-43;2;9;10209;18;2;10;1;1;19;1;20;2;40;29,32;3;3;35,32;0;18;China;Physics;;;;;
1;TT-43;2;9;10209;19;2;4;1;1;19;1;20;2;40;29,32;3;3;35,32;0;18;China;Physics;;;;;
1;TT-43;2;9;10209;20;2;3;1;1;19;1;20;2;40;29,32;3;3;35,32;0;18;China;Physics;;;;;
1;TT-43;2;9;10209;21;2;1;1;1;19;1;20;2;40;29,32;3;3;35,32;0;18;China;Physics;;;;;
1;TT-43;2;9;10209;22;2;5;1;1;19;1;20;2;40;29,32;3;3;35,32;0;18;China;Physics;;;;;
1;TT-43;2;9;10209;23;2;4;1;1;19;1;20;2;40;29,32;3;3;35,32;0;18;China;Physics;;;;;
1;TT-43;2;9;10209;24;2;2;1;1;18;2;20;2;40;29,32;3;3;35,32;0;18;China;Physics;;;;;
1;TT-43;2;9;10209;25;2;4;1;2;18;2;12;2;40;29,32;3;3;35,32;0;18;China;Physics;;;;;
1;TT-43;2;9;10209;26;2;9;1;1;19;1;20;2;40;29,32;3;3;35,32;0;18;China;Physics;;;;;
1;TT-43;2;9;10209;27;2;10;1;1;19;1;20;2;40;29,32;3;3;35,32;0;18;China;Physics;;;;;
1;TT-43;2;9;10209;28;2;5;1;1;19;1;20;2;40;29,32;3;3;35,32;0;18;China;Physics;;;;;
1;TT-43;2;9;10209;29;2;3;1;1;19;1;20;2;40;29,32;3;3;35,32;0;18;China;Physics;;;;;
1;TT-43;2;9;10209;30;2;3;1;2;19;1;16;2;40;29,32;3;3;35,32;0;18;China;Physics;;;;;
1;TT-43;2;9;10209;31;2;1;1;1;19;1;20;2;40;29,32;3;3;35,32;0;18;China;Physics;;;;;
1;TT-43;2;10;10210;1;1;6;1;1;19;1;30;1;27;31,84;2;3;36,84;1;20;Asian;Global Health;;;;;
1;TT-43;2;10;10210;2;1;10;1;1;18;2;30;1;27;31,84;2;3;36,84;1;20;Asian;Global Health;;;;;
1;TT-43;2;10;10210;3;1;5;1;1;19;1;30;1;27;31,84;2;3;36,84;1;20;Asian;Global Health;;;;;
1;TT-43;2;10;10210;4;1;4;1;1;18;2;30;1;27;31,84;2;3;36,84;1;20;Asian;Global Health;;;;;
1;TT-43;2;10;10210;5;1;10;1;1;18;2;30;1;27;31,84;2;3;36,84;1;20;Asian;Global Health;;;;;
1;TT-43;2;10;10210;6;1;8;1;1;17;3;30;1;27;31,84;2;3;36,84;1;20;Asian;Global Health;;;;;
1;TT-43;2;10;10210;7;1;6;1;2;18;2;22;1;27;31,84;2;3;36,84;1;20;Asian;Global Health;;;;;
1;TT-43;2;10;10210;8;1;1;1;1;17;3;30;1;27;31,84;2;3;36,84;1;20;Asian;Global Health;;;;;
1;TT-43;2;10;10210;9;1;5;1;1;18;2;30;1;27;31,84;2;3;36,84;1;20;Asian;Global Health;;;;;
1;TT-43;2;10;10210;10;1;8;1;1;19;1;30;1;27;31,84;2;3;36,84;1;20;Asian;Global Health;;;;;
1;TT-43;2;10;10210;11;1;1;1;1;18;2;30;1;27;31,84;2;3;36,84;1;20;Asian;Global Health;;;;;
1;TT-43;2;10;10210;12;1;7;1;1;18;2;30;1;27;31,84;2;3;36,84;1;20;Asian;Global Health;;;;;
1;TT-43;2;10;10210;13;2;3;1;1;19;1;20;1;27;31,84;2;3;36,84;1;20;Asian;Global Health;;;;;
1;TT-43;2;10;10210;14;2;8;1;1;18;2;20;1;27;31,84;2;3;36,84;1;20;Asian;Global Health;;;;;
1;TT-43;2;10;10210;15;2;2;1;1;18;2;20;1;27;31,84;2;3;36,84;1;20;Asian;Global Health;;;;;
1;TT-43;2;10;10210;16;2;9;1;1;18;2;20;1;27;31,84;2;3;36,84;1;20;Asian;Global Health;;;;;
1;TT-43;2;10;10210;17;2;5;1;1;19;1;20;1;27;31,84;2;3;36,84;1;20;Asian;Global Health;;;;;
1;TT-43;2;10;10210;18;2;4;1;1;19;1;20;1;27;31,84;2;3;36,84;1;20;Asian;Global Health;;;;;
1;TT-43;2;10;10210;19;2;8;1;2;19;1;16;1;27;31,84;2;3;36,84;1;20;Asian;Global Health;;;;;
1;TT-43;2;10;10210;20;2;1;1;1;19;1;20;1;27;31,84;2;3;36,84;1;20;Asian;Global Health;;;;;
1;TT-43;2;10;10210;21;2;9;1;1;19;1;20;1;27;31,84;2;3;36,84;1;20;Asian;Global Health;;;;;
1;TT-43;2;10;10210;22;2;1;1;1;19;1;20;1;27;31,84;2;3;36,84;1;20;Asian;Global Health;;;;;
1;TT-43;2;10;10210;23;2;3;1;1;19;1;20;1;27;31,84;2;3;36,84;1;20;Asian;Global Health;;;;;
1;TT-43;2;10;10210;24;2;3;1;1;18;2;20;1;27;31,84;2;3;36,84;1;20;Asian;Global Health;;;;;
1;TT-43;2;10;10210;25;2;9;1;1;18;2;20;1;27;31,84;2;3;36,84;1;20;Asian;Global Health;;;;;
1;TT-43;2;10;10210;26;2;8;1;1;19;1;20;1;27;31,84;2;3;36,84;1;20;Asian;Global Health;;;;;
1;TT-43;2;10;10210;27;2;10;1;1;19;1;20;1;27;31,84;2;3;36,84;1;20;Asian;Global Health;;;;;
1;TT-43;2;10;10210;28;2;6;1;1;19;1;20;1;27;31,84;2;3;36,84;1;20;Asian;Global Health;;;;;
1;TT-43;2;10;10210;29;2;5;1;1;19;1;20;1;27;31,84;2;3;36,84;1;20;Asian;Global Health;;;;;
1;TT-43;2;10;10210;30;2;9;1;1;19;1;20;1;27;31,84;2;3;36,84;1;20;Asian;Global Health;;;;;
1;TT-43;2;10;10210;31;2;4;1;1;19;1;20;1;27;31,84;2;3;36,84;1;20;Asian;Global Health;;;;;
1;TT-43;2;11;10211;1;1;3;1;1;19;1;30;1;31;30,04;2;3;35,04;0;23;Macau;Management Science;;;;;
1;TT-43;2;11;10211;2;1;4;1;1;18;2;30;1;31;30,04;2;3;35,04;0;23;Macau;Management Science;;;;;
1;TT-43;2;11;10211;3;1;3;1;1;19;1;30;1;31;30,04;2;3;35,04;0;23;Macau;Management Science;;;;;
1;TT-43;2;11;10211;4;1;2;1;1;18;2;30;1;31;30,04;2;3;35,04;0;23;Macau;Management Science;;;;;
1;TT-43;2;11;10211;5;1;4;1;1;18;2;30;1;31;30,04;2;3;35,04;0;23;Macau;Management Science;;;;;
1;TT-43;2;11;10211;6;1;1;1;1;17;3;30;1;31;30,04;2;3;35,04;0;23;Macau;Management Science;;;;;
1;TT-43;2;11;10211;7;2;7;1;1;18;2;20;1;31;30,04;2;3;35,04;0;23;Macau;Management Science;;;;;
1;TT-43;2;11;10211;8;2;2;1;1;17;3;20;1;31;30,04;2;3;35,04;0;23;Macau;Management Science;;;;;
1;TT-43;2;11;10211;9;2;1;1;1;18;2;20;1;31;30,04;2;3;35,04;0;23;Macau;Management Science;;;;;
1;TT-43;2;11;10211;10;2;9;1;1;19;1;20;1;31;30,04;2;3;35,04;0;23;Macau;Management Science;;;;;
1;TT-43;2;11;10211;11;2;9;1;1;18;2;20;1;31;30,04;2;3;35,04;0;23;Macau;Management Science;;;;;
1;TT-43;2;11;10211;12;2;4;1;1;18;2;20;1;31;30,04;2;3;35,04;0;23;Macau;Management Science;;;;;
1;TT-43;2;11;10211;13;2;8;1;1;19;1;20;1;31;30,04;2;3;35,04;0;23;Macau;Management Science;;;;;
1;TT-43;2;11;10211;14;2;4;1;1;18;2;20;1;31;30,04;2;3;35,04;0;23;Macau;Management Science;;;;;
1;TT-43;2;11;10211;15;2;7;1;2;18;2;12;1;31;30,04;2;3;35,04;0;23;Macau;Management Science;;;;;
1;TT-43;2;11;10211;16;2;8;1;1;18;2;20;1;31;30,04;2;3;35,04;0;23;Macau;Management Science;;;;;
1;TT-43;2;11;10211;17;2;4;1;1;19;1;20;1;31;30,04;2;3;35,04;0;23;Macau;Management Science;;;;;
1;TT-43;2;11;10211;18;2;1;1;1;19;1;20;1;31;30,04;2;3;35,04;0;23;Macau;Management Science;;;;;
1;TT-43;2;11;10211;19;2;7;1;1;19;1;20;1;31;30,04;2;3;35,04;0;23;Macau;Management Science;;;;;
1;TT-43;2;11;10211;20;2;6;1;2;19;1;16;1;31;30,04;2;3;35,04;0;23;Macau;Management Science;;;;;
1;TT-43;2;11;10211;21;2;10;1;1;19;1;20;1;31;30,04;2;3;35,04;0;23;Macau;Management Science;;;;;
1;TT-43;2;11;10211;22;2;7;1;1;19;1;20;1;31;30,04;2;3;35,04;0;23;Macau;Management Science;;;;;
1;TT-43;2;11;10211;23;2;6;1;1;19;1;20;1;31;30,04;2;3;35,04;0;23;Macau;Management Science;;;;;
1;TT-43;2;11;10211;24;2;6;1;1;18;2;20;1;31;30,04;2;3;35,04;0;23;Macau;Management Science;;;;;
1;TT-43;2;11;10211;25;2;9;1;1;18;2;20;1;31;30,04;2;3;35,04;0;23;Macau;Management Science;;;;;
1;TT-43;2;11;10211;26;2;3;1;1;19;1;20;1;31;30,04;2;3;35,04;0;23;Macau;Management Science;;;;;
1;TT-43;2;11;10211;27;2;3;1;1;19;1;20;1;31;30,04;2;3;35,04;0;23;Macau;Management Science;;;;;
1;TT-43;2;11;10211;28;2;9;1;1;19;1;20;1;31;30,04;2;3;35,04;0;23;Macau;Management Science;;;;;
1;TT-43;2;11;10211;29;2;5;1;1;19;1;20;1;31;30,04;2;3;35,04;0;23;Macau;Management Science;;;;;
1;TT-43;2;11;10211;30;2;1;1;1;19;1;20;1;31;30,04;2;3;35,04;0;23;Macau;Management Science;;;;;
1;TT-43;2;11;10211;31;2;4;1;1;19;1;20;1;31;30,04;2;3;35,04;0;23;Macau;Management Science;;;;;
1;TT-43;2;12;10212;1;1;2;1;1;19;1;30;1;35;20,98;2;3;25,98;1;19;Filipino;Psychology & Public Health;;;;;
1;TT-43;2;12;10212;2;1;5;2;1;18;2;-52;1;35;20,98;2;3;25,98;1;19;Filipino;Psychology & Public Health;;;;;
1;TT-43;2;12;10212;3;1;4;1;1;19;1;30;1;35;20,98;2;3;25,98;1;19;Filipino;Psychology & Public Health;;;;;
1;TT-43;2;12;10212;4;2;1;2;1;18;2;-42;1;35;20,98;2;3;25,98;1;19;Filipino;Psychology & Public Health;;;;;
1;TT-43;2;12;10212;5;2;1;2;1;18;2;-42;1;35;20,98;2;3;25,98;1;19;Filipino;Psychology & Public Health;;;;;
1;TT-43;2;12;10212;6;2;2;2;1;17;3;-38;1;35;20,98;2;3;25,98;1;19;Filipino;Psychology & Public Health;;;;;
1;TT-43;2;12;10212;7;2;8;1;1;18;2;20;1;35;20,98;2;3;25,98;1;19;Filipino;Psychology & Public Health;;;;;
1;TT-43;2;12;10212;8;2;9;1;1;17;3;20;1;35;20,98;2;3;25,98;1;19;Filipino;Psychology & Public Health;;;;;
1;TT-43;2;12;10212;9;2;1;1;1;18;2;20;1;35;20,98;2;3;25,98;1;19;Filipino;Psychology & Public Health;;;;;
1;TT-43;2;12;10212;10;2;1;1;1;19;1;20;1;35;20,98;2;3;25,98;1;19;Filipino;Psychology & Public Health;;;;;
1;TT-43;2;12;10212;11;2;5;1;1;18;2;20;1;35;20,98;2;3;25,98;1;19;Filipino;Psychology & Public Health;;;;;
1;TT-43;2;12;10212;12;2;10;1;2;18;2;12;1;35;20,98;2;3;25,98;1;19;Filipino;Psychology & Public Health;;;;;
1;TT-43;2;12;10212;13;2;2;1;1;19;1;20;1;35;20,98;2;3;25,98;1;19;Filipino;Psychology & Public Health;;;;;
1;TT-43;2;12;10212;14;2;2;1;1;18;2;20;1;35;20,98;2;3;25,98;1;19;Filipino;Psychology & Public Health;;;;;
1;TT-43;2;12;10212;15;2;10;1;2;18;2;12;1;35;20,98;2;3;25,98;1;19;Filipino;Psychology & Public Health;;;;;
1;TT-43;2;12;10212;16;2;7;1;1;18;2;20;1;35;20,98;2;3;25,98;1;19;Filipino;Psychology & Public Health;;;;;
1;TT-43;2;12;10212;17;2;1;1;2;19;1;16;1;35;20,98;2;3;25,98;1;19;Filipino;Psychology & Public Health;;;;;
1;TT-43;2;12;10212;18;2;2;1;1;19;1;20;1;35;20,98;2;3;25,98;1;19;Filipino;Psychology & Public Health;;;;;
1;TT-43;2;12;10212;19;2;9;1;1;19;1;20;1;35;20,98;2;3;25,98;1;19;Filipino;Psychology & Public Health;;;;;
1;TT-43;2;12;10212;20;2;10;1;1;19;1;20;1;35;20,98;2;3;25,98;1;19;Filipino;Psychology & Public Health;;;;;
1;TT-43;2;12;10212;21;2;8;1;1;19;1;20;1;35;20,98;2;3;25,98;1;19;Filipino;Psychology & Public Health;;;;;
1;TT-43;2;12;10212;22;2;4;1;1;19;1;20;1;35;20,98;2;3;25,98;1;19;Filipino;Psychology & Public Health;;;;;
1;TT-43;2;12;10212;23;2;8;1;1;19;1;20;1;35;20,98;2;3;25,98;1;19;Filipino;Psychology & Public Health;;;;;
1;TT-43;2;12;10212;24;2;10;1;1;18;2;20;1;35;20,98;2;3;25,98;1;19;Filipino;Psychology & Public Health;;;;;
1;TT-43;2;12;10212;25;2;8;1;1;18;2;20;1;35;20,98;2;3;25,98;1;19;Filipino;Psychology & Public Health;;;;;
1;TT-43;2;12;10212;26;2;3;1;1;19;1;20;1;35;20,98;2;3;25,98;1;19;Filipino;Psychology & Public Health;;;;;
1;TT-43;2;12;10212;27;2;1;1;1;19;1;20;1;35;20,98;2;3;25,98;1;19;Filipino;Psychology & Public Health;;;;;
1;TT-43;2;12;10212;28;2;8;1;1;19;1;20;1;35;20,98;2;3;25,98;1;19;Filipino;Psychology & Public Health;;;;;
1;TT-43;2;12;10212;29;2;4;1;1;19;1;20;1;35;20,98;2;3;25,98;1;19;Filipino;Psychology & Public Health;;;;;
1;TT-43;2;12;10212;30;2;4;1;1;19;1;20;1;35;20,98;2;3;25,98;1;19;Filipino;Psychology & Public Health;;;;;
1;TT-43;2;12;10212;31;2;5;1;1;19;1;20;1;35;20,98;2;3;25,98;1;19;Filipino;Psychology & Public Health;;;;;
1;TT-43;2;13;10213;1;1;1;1;1;19;1;30;4;42;33,52;5;3;41,52;0;20;American.;Computer Science;;;;;
1;TT-43;2;13;10213;2;1;1;1;1;18;2;30;4;42;33,52;5;3;41,52;0;20;American.;Computer Science;;;;;
1;TT-43;2;13;10213;3;1;8;1;1;19;1;30;4;42;33,52;5;3;41,52;0;20;American.;Computer Science;;;;;
1;TT-43;2;13;10213;4;1;5;1;1;18;2;30;4;42;33,52;5;3;41,52;0;20;American.;Computer Science;;;;;
1;TT-43;2;13;10213;5;1;1;1;2;18;2;22;4;42;33,52;5;3;41,52;0;20;American.;Computer Science;;;;;
1;TT-43;2;13;10213;6;1;4;1;1;17;3;30;4;42;33,52;5;3;41,52;0;20;American.;Computer Science;;;;;
1;TT-43;2;13;10213;7;1;3;1;1;18;2;30;4;42;33,52;5;3;41,52;0;20;American.;Computer Science;;;;;
1;TT-43;2;13;10213;8;1;6;2;1;17;3;-48;4;42;33,52;5;3;41,52;0;20;American.;Computer Science;;;;;
1;TT-43;2;13;10213;9;1;3;1;1;18;2;30;4;42;33,52;5;3;41,52;0;20;American.;Computer Science;;;;;
1;TT-43;2;13;10213;10;1;7;1;1;19;1;30;4;42;33,52;5;3;41,52;0;20;American.;Computer Science;;;;;
1;TT-43;2;13;10213;11;1;7;1;1;18;2;30;4;42;33,52;5;3;41,52;0;20;American.;Computer Science;;;;;
1;TT-43;2;13;10213;12;1;2;1;1;18;2;30;4;42;33,52;5;3;41,52;0;20;American.;Computer Science;;;;;
1;TT-43;2;13;10213;13;1;8;1;1;19;1;30;4;42;33,52;5;3;41,52;0;20;American.;Computer Science;;;;;
1;TT-43;2;13;10213;14;1;7;1;1;18;2;30;4;42;33,52;5;3;41,52;0;20;American.;Computer Science;;;;;
1;TT-43;2;13;10213;15;1;9;1;1;18;2;30;4;42;33,52;5;3;41,52;0;20;American.;Computer Science;;;;;
1;TT-43;2;13;10213;16;1;9;1;1;18;2;30;4;42;33,52;5;3;41,52;0;20;American.;Computer Science;;;;;
1;TT-43;2;13;10213;17;1;3;1;1;19;1;30;4;42;33,52;5;3;41,52;0;20;American.;Computer Science;;;;;
1;TT-43;2;13;10213;18;1;6;1;1;19;1;30;4;42;33,52;5;3;41,52;0;20;American.;Computer Science;;;;;
1;TT-43;2;13;10213;19;1;3;1;1;19;1;30;4;42;33,52;5;3;41,52;0;20;American.;Computer Science;;;;;
1;TT-43;2;13;10213;20;1;10;1;1;19;1;30;4;42;33,52;5;3;41,52;0;20;American.;Computer Science;;;;;
1;TT-43;2;13;10213;21;1;4;1;1;19;1;30;4;42;33,52;5;3;41,52;0;20;American.;Computer Science;;;;;
1;TT-43;2;13;10213;22;1;8;1;1;19;1;30;4;42;33,52;5;3;41,52;0;20;American.;Computer Science;;;;;
1;TT-43;2;13;10213;23;1;2;1;1;19;1;30;4;42;33,52;5;3;41,52;0;20;American.;Computer Science;;;;;
1;TT-43;2;13;10213;24;1;6;1;1;18;2;30;4;42;33,52;5;3;41,52;0;20;American.;Computer Science;;;;;
1;TT-43;2;13;10213;25;1;2;1;1;18;2;30;4;42;33,52;5;3;41,52;0;20;American.;Computer Science;;;;;
1;TT-43;2;13;10213;26;2;6;1;1;19;1;20;4;42;33,52;5;3;41,52;0;20;American.;Computer Science;;;;;
1;TT-43;2;13;10213;27;2;9;1;1;19;1;20;4;42;33,52;5;3;41,52;0;20;American.;Computer Science;;;;;
1;TT-43;2;13;10213;28;2;5;1;1;19;1;20;4;42;33,52;5;3;41,52;0;20;American.;Computer Science;;;;;
1;TT-43;2;13;10213;29;2;7;1;1;19;1;20;4;42;33,52;5;3;41,52;0;20;American.;Computer Science;;;;;
1;TT-43;2;13;10213;30;2;6;1;1;19;1;20;4;42;33,52;5;3;41,52;0;20;American.;Computer Science;;;;;
1;TT-43;2;13;10213;31;2;8;1;1;19;1;20;4;42;33,52;5;3;41,52;0;20;American.;Computer Science;;;;;
1;TT-43;2;14;10214;1;1;9;1;1;19;1;30;3;24;31,18;4;3;38,18;1;21;American;Biology;;;;;
1;TT-43;2;14;10214;2;1;9;1;1;18;2;30;3;24;31,18;4;3;38,18;1;21;American;Biology;;;;;
1;TT-43;2;14;10214;3;1;1;1;1;19;1;30;3;24;31,18;4;3;38,18;1;21;American;Biology;;;;;
1;TT-43;2;14;10214;4;1;7;1;1;18;2;30;3;24;31,18;4;3;38,18;1;21;American;Biology;;;;;
1;TT-43;2;14;10214;5;1;7;1;1;18;2;30;3;24;31,18;4;3;38,18;1;21;American;Biology;;;;;
1;TT-43;2;14;10214;6;1;1;1;1;17;3;30;3;24;31,18;4;3;38,18;1;21;American;Biology;;;;;
1;TT-43;2;14;10214;7;1;10;1;1;18;2;30;3;24;31,18;4;3;38,18;1;21;American;Biology;;;;;
1;TT-43;2;14;10214;8;1;10;1;1;17;3;30;3;24;31,18;4;3;38,18;1;21;American;Biology;;;;;
1;TT-43;2;14;10214;9;1;6;1;1;18;2;30;3;24;31,18;4;3;38,18;1;21;American;Biology;;;;;
1;TT-43;2;14;10214;10;2;10;1;1;19;1;20;3;24;31,18;4;3;38,18;1;21;American;Biology;;;;;
1;TT-43;2;14;10214;11;2;7;1;1;18;2;20;3;24;31,18;4;3;38,18;1;21;American;Biology;;;;;
1;TT-43;2;14;10214;12;2;5;1;1;18;2;20;3;24;31,18;4;3;38,18;1;21;American;Biology;;;;;
1;TT-43;2;14;10214;13;2;10;1;1;19;1;20;3;24;31,18;4;3;38,18;1;21;American;Biology;;;;;
1;TT-43;2;14;10214;14;2;8;1;1;18;2;20;3;24;31,18;4;3;38,18;1;21;American;Biology;;;;;
1;TT-43;2;14;10214;15;2;8;1;1;18;2;20;3;24;31,18;4;3;38,18;1;21;American;Biology;;;;;
1;TT-43;2;14;10214;16;2;6;1;1;18;2;20;3;24;31,18;4;3;38,18;1;21;American;Biology;;;;;
1;TT-43;2;14;10214;17;2;6;1;1;19;1;20;3;24;31,18;4;3;38,18;1;21;American;Biology;;;;;
1;TT-43;2;14;10214;18;2;4;1;1;19;1;20;3;24;31,18;4;3;38,18;1;21;American;Biology;;;;;
1;TT-43;2;14;10214;19;2;10;1;1;19;1;20;3;24;31,18;4;3;38,18;1;21;American;Biology;;;;;
1;TT-43;2;14;10214;20;2;1;1;1;19;1;20;3;24;31,18;4;3;38,18;1;21;American;Biology;;;;;
1;TT-43;2;14;10214;21;2;2;1;1;19;1;20;3;24;31,18;4;3;38,18;1;21;American;Biology;;;;;
1;TT-43;2;14;10214;22;2;10;1;2;19;1;16;3;24;31,18;4;3;38,18;1;21;American;Biology;;;;;
1;TT-43;2;14;10214;23;2;1;1;1;19;1;20;3;24;31,18;4;3;38,18;1;21;American;Biology;;;;;
